t,lx,ly,lz,ax,ay,az,lvx,lvy,lvz,avx,avy,avz,lax,lay,laz,aax,aay,aaz,target_lx,target_ly,target_lz,target_ax,target_ay,target_az,target_lvx,target_lvy,target_lvz,target_avx,target_avy,target_avz,target_lax,target_lay,target_laz,target_aax,target_aay,target_aaz
0.0,-0.0001083306026817129,2.4759899295145253e-05,0.3484002995598183,-5.155138657491956e-05,-0.00024314007900476788,-8.640154397924064e-07,0.0045650499075340495,-0.0005322165169571599,0.046258536966924654,0.0010217062789463593,0.004867675957851406,-0.00023501475772612688,0.0979637573000272,-0.022318154559956477,-0.11591454004712942,0.037639048958751635,0.12682328794193692,0.02029677997075936,0.0,0.0,0.25,0.0,0.0,0.0,0,0,0,0,0,0,0,0,0,0,0,0
1.0,-0.00122442761959265,0.00013101428411498438,0.3372032551685573,-0.00021089833542574054,-0.001054209119917493,-0.00013706539930866823,0.037935700527892906,-0.002749711714060219,0.5606294611031414,0.006152398811419458,0.03213501232499689,0.0025943669160989158,0.1380663190268255,-0.08305123401116682,-7.933671519272012,0.08574410256252747,0.21216246092149454,0.040096140884930284,0.0,0.0,0.25,0.0,0.0,0.0,0.0,0.0,0.0,0.0,0.0,0.0,0,0,0,0,0,0
2.0,-0.0022933147648592006,0.00023011179645689015,0.3259744041048674,-0.000365612161465418,-0.0018346928588857908,-0.00026624943025224597,0.06623171433815106,-0.004439241898082664,1.026361300034564,0.010405392306783022,0.05524155476349712,0.00486695097215159,0.2700994887313478,-0.14914433086920226,-14.196757673735023,0.14743613988210938,0.3733374359668553,0.0637612048936331,0.0,0.0,0.25,0.0,0.0,0.0,0.0,0.0,0.0,0.0,0.0,0.0,0.0,0.0,0.0,0.0,0.0,0.0
3.0,-0.0032706967058219716,0.0003162860829663571,0.3148012365068819,-0.0005126572163112268,-0.002567176779256218,-0.0003805582193553147,0.08605048160799245,-0.005261705707781152,1.4094984568938018,0.013217785673904506,0.07149354648154387,0.006205020793473425,0.5598639772008384,-0.22384948070132807,-17.721853293536626,0.23222438461977324,0.6649499959376428,0.09450635689082108,0.0,0.0,0.25,0.0,0.0,0.0,0.0,0.0,0.0,0.0,0.0,0.0,0.0,0.0,0.0,0.0,0.0,0.0
4.0,-0.004116028040826308,0.0003848521577759104,0.3038669629044821,-0.000647784367581581,-0.0032353734815799627,-0.00047090928909736214,0.09572509194169744,-0.005053963852261688,1.6914983426882906,0.0142747090395086,0.07941542570150463,0.006468458054202451,1.0305985020091877,-0.30687941146289655,-17.8922092972291,0.34230930497125434,1.105255999098666,0.13196310658158472,0.0,0.0,0.25,0.0,0.0,0.0,0.0,0.0,0.0,0.0,0.0,0.0,0.0,0.0,0.0,0.0,0.0,0.0
5.0,-0.004797293640398028,0.00043246931586256245,0.2934109475381837,-0.0007654449559951047,-0.003824890616488689,-0.0005294547441221569,0.09508589885947245,-0.0038076045847723807,1.8669118089484371,0.013487086050772297,0.07860351288371518,0.005725568616852225,1.6582219743701434,-0.39420120869379194,-14.7545132279186,0.4717935521734528,1.6717439098864197,0.172147518711192,0.0,0.0,0.25,0.0,0.0,0.0,0.0,0.0,0.0,0.0,0.0,0.0,0.0,0.0,0.0,0.0,0.0,0.0
6.0,-0.005295345857634045,0.0004571378015293132,0.28367349193829056,-0.0008591831369930114,-0.004318372682935136,-0.0005530294162182553,0.08505536222628232,-0.0016301364382199314,1.9399306394917546,0.0109511688842217,0.06949451810780494,0.0041938714058317806,2.3843960931925507,-0.47919015573445817,-8.8659740187551,0.6087990094991027,2.311537380928124,0.2090243553928194,0.0,0.0,0.25,0.0,0.0,0.0,0.0,0.0,0.0,0.0,0.0,0.0,0.0,0.0,0.0,0.0,0.0,0.0
7.0,-0.005604819167432941,0.0004580268183108111,0.2748589845906469,-0.0009218980503737433,-0.004688387779871629,-0.0005446351297470078,0.06726864906447713,0.0012920083093125353,1.9214425264245716,0.00691268335828239,0.05317758813864845,0.002175028108850823,3.1340882608347185,-0.5541523709723846,-1.0774079504708756,0.738453655862767,2.956031462617135,0.23638403464857935,0.0,0.0,0.25,0.0,0.0,0.0,0.0,0.0,0.0,0.0,0.0,0.0,0.0,0.0,0.0,0.0,0.0,0.0
8.0,-0.005731693909312492,0.0004352879531721497,0.2671170200221922,-0.0009464375869761786,-0.004896648262850982,-0.0005120206997211165,0.043740021675372,0.004726511886333825,1.8265469222127013,0.0017326095860853259,0.03123735327292316,-8.706688973510792e-06,3.830454242928231,-0.6116610185829825,7.650912921234935,0.8456291102783816,3.5340445320647857,0.24930590755535798,0.0,0.0,0.25,0.0,0.0,0.0,0.0,0.0,0.0,0.0,0.0,0.0,0.0,0.0,0.0,0.0,0.0,0.0
9.0,-0.005689780918279847,0.0003900202215815839,0.26053531436003474,-0.0009274213598387094,-0.0049089837249822535,-0.00046479374858758257,0.01658980707340064,0.008423153515263775,1.6725006132239084,-0.004148793735618907,0.005601243537420485,-0.0020674857789695984,4.405945046453339,-0.6455815702613704,16.391555425611344,0.9172018475803227,3.9824992037386227,0.2450576892596459,0.0,0.0,0.25,0.0,0.0,0.0,0.0,0.0,0.0,0.0,0.0,0.0,0.0,0.0,0.0,0.0,0.0,0.0
10.0,-0.005497713419300182,0.0003242873200781396,0.2551411539004518,-0.0008633900759977551,-0.004714561498181355,-0.0004118987726204822,-0.012160953463222551,0.012136417606460495,1.4770690573538117,-0.01025208396312713,-0.021634456167711914,-0.003779544902580991,4.809367879792665,-0.6517388923891824,24.348618501759614,0.9437025671498531,4.254092830693743,0.22341390272784328,0.0,0.0,0.25,0.0,0.0,0.0,0.0,0.0,0.0,0.0,0.0,0.0,0.0,0.0,0.0,0.0,0.0,0.0
11.0,-0.005176627347940943,0.00024099325207318156,0.2509071793648105,-0.0007577969084459011,-0.004331567233600036,-0.0003602899140022847,-0.04072916625770207,0.01564279492791658,1.2572574083797554,-0.016102491399330822,-0.04840420776971042,-0.005007511335253395,5.009208725743842,-0.6282348638759688,30.915961067543215,0.9202905784396288,4.321748346116578,0.1864772835245754,0.0,0.0,0.25,0.0,0.0,0.0,0.0,0.0,0.0,0.0,0.0,0.0,0.0,0.0,0.0,0.0,0.0,0.0
12.0,-0.004748422498589314,0.000143632698198544,0.24775947079673014,-0.0006185958989267159,-0.0038004291032611576,-0.0003145895715026527,-0.06764886368922737,0.018752969782336506,1.028389223655015,-0.021273884023185245,-0.07287570914005656,-0.005697810292938307,4.993875110974728,-0.5754619117744704,35.70099418311233,0.8470530016995921,4.179918129122515,0.13814802499010123,0.0,0.0,0.25,0.0,0.0,0.0,0.0,0.0,0.0,0.0,0.0,0.0,0.0,0.0,0.0,0.0,0.0,0.0
13.0,-0.004234575405924002,3.601405360327183e-05,0.24558738830288374,-0.00045689020528003076,-0.003172917486450372,-0.00027729149716705816,-0.09180168578065777,0.021319190526047558,0.8034953429230964,-0.025427119995997165,-0.09361890488286391,-0.005868205751454603,4.769678300989082,-0.4958784809851068,38.52143408328303,0.72868709037793,3.843082478537045,0.08340615630363717,0.0,0.0,0.25,0.0,0.0,0.0,0.0,0.0,0.0,0.0,0.0,0.0,0.0,0.0,0.0,0.0,0.0,0.0
14.0,-0.0036554083704989633,-7.79923714725211e-05,0.24425444200192398,-0.0002851244300818098,-0.0025015958849262812,-0.0002492153665267386,-0.11241076170515255,0.023238304701650267,0.5929721718123101,-0.02833714546084585,-0.1097109533346651,-0.005589028647727689,4.357388960262635,-0.3936204064113352,39.38266969646217,0.5736770894768634,3.342029775100284,0.02755953736067819,0.0,0.0,0.25,0.0,0.0,0.0,0.0,0.0,0.0,0.0,0.0,0.0,0.0,0.0,0.0,0.0,0.0,0.0
15.0,-0.003029700319155289,-0.00019465636041459961,0.24360939343424934,-0.00011526411845910628,-0.0018318169233373666,-0.00023002361299909277,-0.12900974945102614,0.02445114645170442,0.40446741393489904,-0.029905065610184575,-0.1207635407599259,-0.004962829419417449,3.7881153109041237,-0.27402057660043444,38.44290438717788,0.3931192755292266,2.718687975806132,-0.024424322568873814,0.0,0.0,0.25,0.0,0.0,0.0,0.0,0.0,0.0,0.0,0.0,0.0,0.0,0.0,0.0,0.0,0.0,0.0
16.0,-0.002374531752217401,-0.0003105327911664198,0.2434968199369041,4.268833541988014e-05,-0.0011970521273072402,-0.0002186881108912369,-0.14139738018028083,0.02493911023037023,0.24295135736080728,-0.030154182983919885,-0.12687691483149768,-0.004105805600823877,3.0991099970867713,-0.14310101188881044,35.97228045201339,0.19937350846460963,2.0203574880228468,-0.06842783515123482,0.0,0.0,0.25,0.0,0.0,0.0,0.0,0.0,0.0,0.0,0.0,0.0,0.0,0.0,0.0,0.0,0.0,0.0
17.0,-0.001705274571135116,-0.0004225534116551719,0.24376649305323933,0.0001816349565024311,-0.0006174187947196624,-0.00021385293421082266,-0.1495858701605458,0.024718794538934916,0.11093265088468911,-0.02921179028956238,-0.12853830410905934,-0.00313291240999837,2.32994584088941,-0.007089086859604656,32.3110139307721,0.004722155840473363,1.2941569273823648,-0.10150197902407021,0.0,0.0,0.25,0.0,0.0,0.0,0.0,0.0,0.0,0.0,0.0,0.0,0.0,0.0,0.0,0.0,0.0,0.0
18.0,-0.001035659510376585,-0.0005280749989320005,0.24428108183357633,0.00029772023167566825,-0.00010073381165559384,-0.00021408065592809012,-0.15374940840781745,0.0238355549477812,0.00877898455065552,-0.027280682372114187,-0.1264891382246087,-0.002147348951712222,1.519337291344336,0.12800465024779697,27.830323245144044,-0.1798030038957782,0.5823474703949275,-0.1219966300325618,0.0,0.0,0.25,0.0,0.0,0.0,0.0,0.0,0.0,0.0,0.0,0.0,0.0,0.0,0.0,0.0,0.0,0.0
19.0,-0.00037787502077364253,-0.0006248954891662402,0.24492186473181368,0.0003901244308332778,0.00035480294564765944,-0.00021799524529140146,-0.15417688556925105,0.022356689576530784,-0.06489472889043058,-0.024605553397982056,-0.12158606703315862,-0.0012342446002948256,0.7027407041201426,0.2567239173053168,22.898742622263946,-0.3453046873543145,-0.08101784047114283,-0.12952944156943216,0.0,0.0,0.25,0.0,0.0,0.0,0.0,0.0,0.0,0.0,0.0,0.0,0.0,0.0,0.0,0.0,0.0,0.0
20.0,0.0002573307822157873,-0.0007112489191931262,0.24559231419882654,0.00046045000437263826,0.00075718846974982,-0.00022434705101196943,-0.15123127181062185,0.020364822573160024,-0.1128050938791344,-0.021439592345657475,-0.11467675399097635,-0.00045785870774227636,-0.08924801892567927,0.3744092001287647,17.855342829659232,-0.4855451991818468,-0.6719224376501991,-0.12483343161452062,0.0,0.0,0.25,0.0,0.0,0.0,0.0,0.0,0.0,0.0,0.0,0.0,0.0,0.0,0.0,0.0,0.0,0.0
21.0,0.0008605597481091832,-0.0007857877021753161,0.2462195975295671,0.000511877211167286,0.0011171998507067042,-0.00023202800460257243,-0.14531665994475815,0.017951881150200973,-0.13857647476493068,-0.018015828384641254,-0.10650476075036577,0.0001386034596906223,-0.8317623236151513,0.4773457954336047,12.990478001165325,-0.5970982880371525,-1.1767305826444465,-0.10952731753733348,0.0,0.0,0.25,0.0,0.0,0.0,0.0,0.0,0.0,0.0,0.0,0.0,0.0,0.0,0.0,0.0,0.0,0.0
22.0,0.0014236899184242994,-0.0008475580213474016,0.24675419634550616,0.0005482659579604788,0.0014454995156966124,-0.0002400618460527994,-0.1368529781655161,0.015213902546336533,-0.14634064335066757,-0.01452639356749559,-0.09765040784248806,0.0005314488157938715,-1.5059159228823489,0.5628258312072408,8.533955416260966,-0.679163726056618,-1.5912753592161162,-0.08584961829204969,0.0,0.0,0.25,0.0,0.0,0.0,0.0,0.0,0.0,0.0,0.0,0.0,0.0,0.0,0.0,0.0,0.0,0.0
23.0,0.0019398175190592393,-0.0008959717420799211,0.24716797348179398,0.0005733547664246303,0.0017505518185993634,-0.00024758780151683154,-0.12625771276726558,0.012246773730263422,-0.14038034532014898,-0.011111203805878692,-0.08850773655452626,0.0007139818746705669,-2.0985762240798693,0.6291378824975026,4.649985766823444,-0.7331193971136181,-1.919041081470623,-0.05639031359086434,0.0,0.0,0.25,0.0,0.0,0.0,0.0,0.0,0.0,0.0,0.0,0.0,0.0,0.0,0.0,0.0,0.0,0.0
24.0,0.0024032109681283663,-0.0009307766232540967,0.24745109825373607,0.0005901635608471888,0.0020374439905663003,-0.000253849202960636,-0.1139336079015006,0.00914290541288064,-0.12483144434311987,-0.007855933709529164,-0.07929252170277495,0.0006935779117438002,-2.6018047936967035,0.6755004457686853,1.437904440366206,-0.7619088369684212,-2.1688425990623155,-0.023844802830099616,0.0,0.0,0.25,0.0,0.0,0.0,0.0,0.0,0.0,0.0,0.0,0.0,0.0,0.0,0.0,0.0,0.0,0.0
25.0,0.0028092723222083314,-0.0009520255882022582,0.24760827273743843,0.0006006520652258441,0.0023075452396959313,-0.00025819186389208743,-0.10026115962411591,0.00598877315516857,-0.10345230903860715,-0.00479783228511789,-0.07007308975520579,0.0004887098157211528,-3.0120985210982743,0.7019560725012162,-1.062557723982018,-0.7693685197876073,-2.3523909591793286,0.009194138285553224,0.0,0.0,0.25,0.0,0.0,0.0,0.0,0.0,0.0,0.0,0.0,0.0,0.0,0.0,0.0,0.0,0.0,0.0
26.0,0.003154501987469859,-0.0009600453676447577,0.24765468484899553,0.000605633063322415,0.002558834868432486,-0.00026007193002333423,-0.08559472929616223,0.002863218042185982,-0.07946334946042843,-0.0019370534886595516,-0.06081445699295759,0.00012613179915612545,-3.3295449892920495,0.7092419124557374,-2.862754653930829,-0.7595903109773225,-2.482072130021813,0.0403985789217375,0.0,0.0,0.25,0.0,0.0,0.0,0.0,0.0,0.0,0.0,0.0,0.0,0.0,0.0,0.0,0.0,0.0,0.0
27.0,0.003436463582133922,-0.0009554047302266594,0.24761206074870654,0.0006048995294263077,0.0027866825543109283,-0.0002590698243399666,-0.07026120901247072,-0.0001636184855757119,-0.055454450587671324,0.0007491888486106684,-0.051426699905256876,-0.0003616932820979734,-3.5569808929950164,0.6986503083814198,-4.014626590833313,-0.736394031562527,-2.569172058105745,0.0678201331906674,0.0,0.0,0.25,0.0,0.0,0.0,0.0,0.0,0.0,0.0,0.0,0.0,0.0,0.0,0.0,0.0,0.0,0.0
28.0,0.003653746941430872,-0.0009388825688543676,0.24750511039659676,0.0005975006938780054,0.0029848622884446987,-0.0002549056417312414,-0.054560332894166966,-0.00303085286530666,-0.033353794664794,0.0032922296588243217,-0.04181002575094942,-0.0009389056509324261,-3.699216864974733,0.6718903975412601,-4.599379338789388,-0.7029577710217213,-2.6226765019469793,0.08995970371097266,0.0,0.0,0.25,0.0,0.0,0.0,0.0,0.0,0.0,0.0,0.0,0.0,0.0,0.0,0.0,0.0,0.0,0.0
29.0,0.0038059281454640515,-0.0009114361893475354,0.2473585690559224,0.0005820942824375492,0.0031466107885521895,-0.00024745148934588633,-0.03876590889070968,-0.005687029337332568,-0.014448419587990162,0.0057194520990795986,-0.03189120581552657,-0.0015683124976432635,-3.7623683892940023,0.6309588082237867,-4.716324570037462,-0.6616244166028176,-2.648674447923779,0.10579742639803143,0.0,0.0,0.25,0.0,0.0,0.0,0.0,0.0,0.0,0.0,0.0,0.0,0.0,0.0,0.0,0.0,0.0,0.0
30.0,0.0038935259414324534,-0.0008741701606946018,0.24719494588276197,0.0005573074136202437,0.003265586787480235,-0.00023673725616093645,-0.023127423624136105,-0.008090005650334601,0.0005550805396038585,0.008045128761396143,-0.021648399285968657,-0.0022132207212912057,-3.7533122085460535,0.5780247901926131,-4.4726560180813655,-0.6138762195131557,-2.650311598513527,0.11478924807206804,0.0,0.0,0.25,0.0,0.0,0.0,0.0,0.0,0.0,0.0,0.0,0.0,0.0,0.0,0.0,0.0,0.0,0.0
31.0,0.003917954084046449,-0.0008283060357955513,0.24703300756537355,0.0005220524669803931,0.0033366377301631707,-0.00022294771191642447,-0.007871634467258809,-0.010206641355436792,0.011442066284907874,0.010265308095259548,-0.011123570087582498,-0.0028390441661020126,-3.67927155975904,0.5153326882190851,-3.974713668458624,-0.5604483300558002,-2.6281824368204076,0.11683691629278264,0.0,0.0,0.25,0.0,0.0,0.0,0.0,0.0,0.0,0.0,0.0,0.0,0.0,0.0,0.0,0.0,0.0,0.0
32.0,0.0038814690364650387,-0.0007751531538836525,0.24688695675661554,0.00047576223528805,0.0033563269111551975,-0.00020641029856081542,0.006796098008359281,-0.012012357635475602,0.01838562902983936,0.012356753724531268,-0.0004234475946506939,-0.003414675696883849,-3.5475218591531212,0.4451226723358157,-3.3210694271054138,-0.5015389337798468,-2.581017859964893,0.11223793899774302,0.0,0.0,0.25,0.0,0.0,0.0,0.0,0.0,0.0,0.0,0.0,0.0,0.0,0.0,0.0,0.0,0.0,0.0
33.0,0.0037871123206632416,-0.0007160806347903072,0.24676621464697832,0.0004185271743704038,0.003323212690444718,-0.00018757429101929298,0.020690869844013443,-0.013490620551719726,0.0218375230462301,0.014279387536045308,0.010288808627054839,-0.0039136022373252735,-3.3652008204334156,0.3695691215863775,-2.59756790042835,-0.4370683334649952,-2.5065185051301446,0.10162155672038044,0.0,0.0,0.25,0.0,0.0,0.0,0.0,0.0,0.0,0.0,0.0,0.0,0.0,0.0,0.0,0.0,0.0,0.0
34.0,0.0036386467334537415,-0.000652490606417784,0.2466756858220468,0.000351133927262865,0.003237900468767069,-0.0001669830295575164,0.033647728266116894,-0.0146323841987801,0.02242335768218266,0.015981317032711266,0.020808423337136728,-0.004314735890625171,-3.1392028868301014,0.29073501114539546,-1.8742856101771201,-0.366941282191304,-2.4021970660186986,0.08587614644767293,0.0,0.0,0.25,0.0,0.0,0.0,0.0,0.0,0.0,0.0,0.0,0.0,0.0,0.0,0.0,0.0,0.0,0.0
35.0,0.003440485718371306,-0.0005857926801078456,0.24661636932550013,0.000275017042371352,0.0031029074392655027,-0.00014524160647170725,0.04552157563767403,-0.015435517086392299,0.02084899807170426,0.017405353997661747,0.030907320107998137,-0.0046029377858998535,-2.876136602673944,0.21054003063953747,-1.2042379238565841,-0.29127447190418354,-2.266120021693987,0.06607284288761835,0.0,0.0,0.25,0.0,0.0,0.0,0.0,0.0,0.0,0.0,0.0,0.0,0.0,0.0,0.0,0.0,0.0,0.0
36.0,0.0031976154465053535,-0.0005173797086083364,0.24658618050590583,0.00019214409482934053,0.0029223904653492856,-0.00012298270917257648,0.05618740945691083,-0.01590422443389986,0.017822839456086943,0.018495936138312137,0.04035318515585083,-0.004769222484884402,-2.5823244332741,0.1307398971814181,-0.6235681166396554,-0.2105622616252811,-2.097473834941128,0.04338955451042131,0.0,0.0,0.25,0.0,0.0,0.0,0.0,0.0,0.0,0.0,0.0,0.0,0.0,0.0,0.0,0.0,0.0,0.0
37.0,0.0029155095931401895,-0.00044860491385320054,0.24658086068753085,0.00010485837199508184,0.0027017901792560583,-0.00010083329902932622,0.06554079466934516,-0.016048471102871924,0.013996418836314759,0.0192055074896541,0.04892702754866111,-0.00481064735373047,-2.2638268872489036,0.05291434254904421,-0.15289680598327332,-0.12576635676137587,-1.8969169359042053,0.019038961965032502,0.0,0.0,0.25,0.0,0.0,0.0,0.0,0.0,0.0,0.0,0.0,0.0,0.0,0.0,0.0,0.0,0.0,0.0
38.0,0.0026000373354058554,-0.00038076054086275303,0.24659487234587069,1.570334434531542e-05,0.0024474410107811037,-7.938450299022124e-05,0.07349844935864493,-0.015883404563744565,0.009923872477164744,0.019499648558396643,0.056437627003001825,-0.0047299102662376686,-1.9264760084243024,-0.02153852878524418,0.2005107575295213,-0.03832732242855487,-1.6667119548067861,-0.005796508640297192,0.0,0.0,0.25,0.0,0.0,0.0,0.0,0.0,0.0,0.0,0.0,0.0,0.0,0.0,0.0,0.0,0.0,0.0
39.0,0.0022573656572841437,-0.0003150582528051543,0.24662220239898497,-7.274971921480185e-05,0.0021661890270577066,-5.9166564718821445e-05,0.07999882252808575,-0.015428774385098765,0.006039151182880036,0.019360524018965146,0.06273194221416437,-0.004534697300958981,-1.5759068920975086,-0.0914034692620693,0.44009273258380677,0.04989393708802012,-1.4106594319129966,-0.03002036913178874,0.0,0.0,0.25,0.0,0.0,0.0,0.0,0.0,0.0,0.0,0.0,0.0,0.0,0.0,0.0,0.0,0.0,0.0
40.0,0.0018938575451451375,-0.00025261152290575095,0.24665702222762398,-0.00015805439010134787,0.0018650491175357486,-4.063006312014012e-05,0.08500255075421229,-0.0147083438955985,0.0026487274764727723,0.01878849044354745,0.06770118512163494,-0.004236837092731495,-1.2175794588168334,-0.1556464560110537,0.5771544637802875,0.13672919983671547,-1.1338728536244624,-0.052666705172091086,0.0,0.0,0.25,0.0,0.0,0.0,0.0,0.0,0.0,0.0,0.0,0.0,0.0,0.0,0.0,0.0,0.0,0.0
41.0,0.0015159680423491812,-0.00019442028638980754,0.24669417780010866,-0.00023801105464284623,0.0015509215200127091,-2.4133908829276763e-05,0.08849269647457045,-0.013749290441552878,-6.3217458908338e-05,0.017801945324959146,0.07128278915021914,-0.0038513283212565,-0.85678600939644,-0.21341132868049711,0.628099314621822,0.2198507407391796,-0.8424449503203756,-0.07293275899706099,0.0,0.0,0.25,0.0,0.0,0.0,0.0,0.0,0.0,0.0,0.0,0.0,0.0,0.0,0.0,0.0,0.0,0.0
42.0,0.0011301403592257353,-0.00014135809760749965,0.24672950481083772,-0.0003107529729052443,0.0012303767173542975,-9.93999429536041e-06,0.090474692011689,-0.012581592541541233,-0.002020480562126532,0.01643567987615419,0.07345887848628839,-0.0033953105044128872,-0.498642905272522,-0.26401543933290916,0.6119195674101352,0.2969331764942492,-0.5430574501019246,-0.09019916293204404,0.0,0.0,0.25,0.0,0.0,0.0,0.0,0.0,0.0,0.0,0.0,0.0,0.0,0.0,0.0,0.0,0.0,0.0
43.0,0.000742704300929024,-9.41619924432191e-05,0.24675998070212984,-0.0003747960968910189,0.0009095084554838105,1.786158224501018e-06,0.09097593765575117,-0.011237404725477669,-0.0032347430593892357,0.014738112194583715,0.07425207137606976,-0.0028870457737243034,-0.14806696905634537,-0.30694472199185513,0.5480792647906292,0.3658101703413085,-0.2425823767523277,-0.1040382128067198,0.0,0.0,0.25,0.0,0.0,0.0,0.0,0.0,0.0,0.0,0.0,0.0,0.0,0.0,0.0,0.0,0.0,0.0
44.0,0.0003597791893145556,-5.342519776915842e-05,0.24678373742974924,-0.0004290560628883091,0.0005938478341362819,1.0969770516733413e-05,0.09004502695688542,-0.009750423496529588,-0.0037827588741880486,0.012767825310575591,0.07371953354485404,-0.0023449713986707925,0.1902611501192755,-0.3418483254281973,0.4548622779135355,0.4246103616487866,0.052285616265657885,-0.11421118981794523,0.0,0.0,0.25,0.0,0.0,0.0,0.0,0.0,0.0,0.0,0.0,0.0,0.0,0.0,0.0,0.0,0.0,0.0
45.0,-1.2816751219729367e-05,-1.9592758715936552e-05,0.24679996605106252,-0.00047283823719693023,0.0002883270688410033,1.7617437278135428e-05,0.08775059588756468,-0.008155250315817413,-0.0037834127150983975,0.010589825257699548,0.07194616227276396,-0.0017868708182410993,0.5119433316927047,-0.3685327642595974,0.3482069422232947,0.47186156726677175,0.3353375014789713,-0.12065625332773122,0.0,0.0,0.25,0.0,0.0,0.0,0.0,0.0,0.0,0.0,0.0,0.0,0.0,0.0,0.0,0.0,0.0,0.0
46.0,-0.00036964886367844537,7.039916602471885e-06,0.24680874675449474,-0.0005058078886005979,-2.7204316518743675e-06,2.1805298894409964e-05,0.08417981324795983,-0.006486759529887744,-0.0033766487989537295,0.008271881372142237,0.06903765928127262,-0.0012291964579617823,0.8129161944217203,-0.38695542765908914,0.24100604778292306,0.5065573588199153,0.6010821731669921,-0.12346880370897305,0.0,0.0,0.25,0.0,0.0,0.0,0.0,0.0,0.0,0.0,0.0,0.0,0.0,0.0,0.0,0.0,0.0,0.0
47.0,-0.0007057390440360196,2.6325667906435633e-05,0.24681083689844768,-0.0005279477290068787,-0.0002755371305146624,2.3665987963580416e-05,0.07943654662675964,-0.004779480590720186,-0.002705647460308404,0.005881230331262282,0.06511407546135028,-0.0006865623341864844,1.0895051844654569,-0.39721723362545575,0.14281923815917733,0.5281848961757617,0.8448972819222789,-0.12287643429102221,0.0,0.0,0.25,0.0,0.0,0.0,0.0,0.0,0.0,0.0,0.0,0.0,0.0,0.0,0.0,0.0,0.0,0.0
48.0,-0.001016628245355988,3.8261486017584676e-05,0.2468074461870281,-0.0005395094033763204,-0.0005269077113051095,2.3375427851540654e-05,0.07363925092261107,-0.0030670047015091437,-0.0019030271447972313,0.0034818323931495665,0.06030421460887314,-0.00017140989513785872,1.338476789593526,-0.3995542181546623,0.0599242227075298,0.53671690563021,1.0631023203855332,-0.11921064999230228,0.0,0.0,0.25,0.0,0.0,0.0,0.0,0.0,0.0,0.0,0.0,0.0,0.0,0.0,0.0,0.0,0.0,0.0
49.0,-0.0012984278370296455,4.298189789110746e-05,0.24680002279039032,-0.0005409642492346844,-0.0007541240804562429,2.1140331047139267e-05,0.06691863485022012,-0.001381426177771608,-0.001081319480599611,0.0011322761992609797,0.0547410936794855,0.0003061620581815659,1.5570855982491336,-0.39432788954816783,-0.004377051659935955,0.5325736369915888,1.2529644427445212,-0.11287743720676285,0.0,0.0,0.25,0.0,0.0,0.0,0.0,0.0,0.0,0.0,0.0,0.0,0.0,0.0,0.0,0.0,0.0,0.0
50.0,-0.0015478594497602167,4.07500633139875e-05,0.24679006747810422,-0.0005329571224354814,-0.0009549551729551026,1.7186990273212228e-05,0.05941516532764833,0.00024717158698872946,-0.0003275354942651579,-0.0011156525574499176,0.04855849366531673,0.0007384223534239062,1.7431135430275404,-0.38201424529041794,-0.049282389391118606,0.5165624068971982,1.412651634169918,-0.10432854731592323,0.0,0.0,0.25,0.0,0.0,0.0,0.0,0.0,0.0,0.0,0.0,0.0,0.0,0.0,0.0,0.0,0.0,0.0
51.0,-0.001762283200850443,3.194684837875806e-05,0.24677898592523934,-0.0005162656182891485,-0.0011276246444991776,1.1751710608244133e-05,0.05127647073494804,0.0017911765221505951,0.00029867335107406387,-0.003217786906183479,0.041888510246073374,0.001119912943838416,1.8948993594986063,-0.3631914303311055,-0.07592273207308135,0.48980298403667527,1.5411494918788229,-0.09403503632453025,0.0,0.0,0.25,0.0,0.0,0.0,0.0,0.0,0.0,0.0,0.0,0.0,0.0,0.0,0.0,0.0,0.0,0.0
52.0,-0.0019397144082031216,1.7058169014127467e-05,0.24676798342503464,-0.0004917656922981124,-0.001270797094304896,5.0730258623939774e-06,0.042654702441951436,0.0032258468357983772,0.0007639533500822442,-0.005137870439293518,0.03485993154888971,0.0014472639536646716,2.0113569877806343,-0.33852610093843183,-0.08677318387026409,0.45364676027075096,1.638157430814156,-0.08246422203787104,0.0,0.0,0.25,0.0,0.0,0.0,0.0,0.0,0.0,0.0,0.0,0.0,0.0,0.0,0.0,0.0,0.0,0.0
53.0,-0.0020788290882272093,-3.339081661197934e-06,0.24675800151271812,-0.00046040361507305,-0.0013835714168031702,-2.614334684261293e-06,0.03370391044173852,0.004529642189932351,0.0010580707119639406,-0.00684744004819764,0.027597230112968208,0.0017189478159185295,2.0919822967656914,-0.3087586394162972,-0.08509584302496906,0.40959661656644747,1.7039781206640956,-0.07006081515330824,0.0,0.0,0.25,0.0,0.0,0.0,0.0,0.0,0.0,0.0,0.0,0.0,0.0,0.0,0.0,0.0,0.0,0.0
54.0,-0.002178958681945121,-2.859219365843798e-05,0.24674969243528388,-0.0004231734583451614,-0.001465478713625509,-1.1083881369134558e-05,0.0245774840579256,0.005684482405674427,0.0011894031265814971,-0.00832541989472675,0.02021995151530956,0.0019350001702683835,2.136848086325534,-0.27468743596711476,-0.07445329020549601,0.3592328992773314,1.7394109816901984,-0.05723258591107978,0.0,0.0,0.25,0.0,0.0,0.0,0.0,0.0,0.0,0.0,0.0,0.0,0.0,0.0,0.0,0.0,0.0,0.0
55.0,-0.0022400745901642477,-5.7988551979198115e-05,0.24674342514978587,-0.00038109890688115835,-0.0015164815643815294,-2.0120435687137095e-05,0.015425703073772458,0.00667593074887208,0.0011798180021048701,-0.009557538639345766,0.012842304466622484,0.002096731566462966,2.1465878025499894,-0.23715251094576675,-0.058316573716317634,0.3041492272616495,1.7456571692472123,-0.04434057200928774,0.0,0.0,0.25,0.0,0.0,0.0,0.0,0.0,0.0,0.0,0.0,0.0,0.0,0.0,0.0,0.0,0.0,0.0
56.0,-0.002262763210192021,-9.077195997801187e-05,0.24673931529403398,-0.0003352181197786662,-0.0015369716919147952,-2.9522096365893712e-05,0.006393438684832193,0.0074933006149238805,0.0010595395773508277,-0.010535664279500975,0.005572796972548557,0.0022064493205079428,2.12236877846476,-0.19701879157930113,-0.03977800397644208,0.24590017470485198,1.7242401301228911,-0.03169353720015148,0.0,0.0,0.25,0.0,0.0,0.0,0.0,0.0,0.0,0.0,0.0,0.0,0.0,0.0,0.0,0.0,0.0,0.0
57.0,-0.002248192270243374,-0.00012615903912364582,0.24673727088809244,-0.00028657051719338663,-0.0015277634766890542,-3.9101362739152237e-05,-0.0023819622996487898,0.008129686172729788,0.00086246598522962,-0.011257128327908839,-0.0014861886882599792,0.002267203717602382,2.065856090317371,-0.15515938126586143,-0.021367817799371056,0.18596138702961001,1.6769428693888213,-0.01954616590609646,0.0,0.0,0.25,0.0,0.0,0.0,0.0,0.0,0.0,0.0,0.0,0.0,0.0,0.0,0.0,0.0,0.0,0.0
58.0,-0.002198069342858038,-0.00016335538203703881,0.2467370457924672,-0.0002361845521331836,-0.0014900813226450948,-4.868566131637276e-05,-0.010772582407083914,0.008581919191883433,0.0006222484210622811,-0.011724087250112139,-0.00823894044000676,0.0022825676656032714,1.9791683063098704,-0.11243916728645025,-0.004965221290959842,0.12570149770350347,1.6057607474185682,-0.008100331838491704,0.0,0.0,0.25,0.0,0.0,0.0,0.0,0.0,0.0,0.0,0.0,0.0,0.0,0.0,0.0,0.0,0.0,0.0
59.0,-0.0021145935019302483,-0.00020157115642732498,0.2467382943333344,-0.00018506574796593655,-0.0014255394210405347,-5.8117499466932846e-05,-0.018661605589231925,0.008850455821124783,0.00036930286061919435,-0.011942946956903079,-0.014597094445613064,0.002256454267554144,1.8648265131954729,-0.06969910546052076,0.008211429952549107,0.06636437462722597,1.5128670343376893,0.0024912945478744774,0.0,0.0,0.25,0.0,0.0,0.0,0.0,0.0,0.0,0.0,0.0,0.0,0.0,0.0,0.0,0.0,0.0,0.0
60.0,-0.002000401153716714,-0.0002400358795738311,0.2467406221661175,-0.00013418460489803932,-0.001336113408502985,-6.72544189231762e-05,-0.02594473974955744,0.0089391984735265,0.0001288013819691934,-0.011923857663667457,-0.02048042522380832,0.0021929728698591965,1.7256980505455808,-0.027741499809560127,0.01755366199369917,0.009059739202709317,1.4005875814145143,0.012120041922788377,0.0,0.0,0.25,0.0,0.0,0.0,0.0,0.0,0.0,0.0,0.0,0.0,0.0,0.0,0.0,0.0,0.0,0.0
61.0,-0.0018585071260287622,-0.0002780121121154204,0.24674362984535364,-8.446431937556378e-05,-0.0012241042292136263,-7.596887232667436e-05,-0.032531378065927895,0.008855259176091331,-8.040815558925119e-05,-0.011680272680670624,-0.025817701362804965,0.002096321105902507,1.5649363766674034,0.01268343613508138,0.02297028581139645,-0.045239965794200226,1.271380745936519,0.02071513211395922,0.0,0.0,0.25,0.0,0.0,0.0,0.0,0.0,0.0,0.0,0.0,0.0,0.0,0.0,0.0,0.0,0.0,0.0
62.0,-0.0016922421318329684,-0.00031480785288450413,0.2467469469635594,-3.676849129628829e-05,-0.0010920950983577145,-8.414810108627114e-05,-0.038345492268360655,0.008608671735475847,-0.00024607579514402924,-0.011228555989869314,-0.03054754622972886,0.0019707083363414086,1.385918446752382,0.05088948975938175,0.024771314593373308,-0.09569849192941021,1.127818997977906,0.028237279446510794,0.0,0.0,0.25,0.0,0.0,0.0,0.0,0.0,0.0,0.0,0.0,0.0,0.0,0.0,0.0,0.0,0.0,0.0
63.0,-0.0015051877410123193,-0.0003497874560863798,0.24675025609163923,8.110871306142774e-06,-0.0009429027427399946,-9.169406113532526e-05,-0.04332625559591363,0.008212060840261796,-0.0003621813046924458,-0.010587619442051242,-0.03461923878319923,0.0018203046393490319,1.192180913582385,0.08626463110322431,0.023544201836755842,-0.14161223976186915,0.9725692905024407,0.034672488850821546,0.0,0.0,0.25,0.0,0.0,0.0,0.0,0.0,0.0,0.0,0.0,0.0,0.0,0.0,0.0,0.0,0.0,0.0
64.0,-0.0013011099897810175,-0.0003823809300160646,0.24675330674135681,4.946464229462384e-05,-0.0007795243854695331,-9.852340945989808e-05,-0.04742839747978054,0.007680276753932855,-0.000428107213540551,-0.009778570289140441,-0.03799339324554113,0.0016492090185116996,0.9873563725902615,0.11827931551775982,0.020035064810701702,-0.18240561996860938,0.8083701336437272,0.04002642014678022,0.0,0.0,0.25,0.0,0.0,0.0,0.0,0.0,0.0,0.0,0.0,0.0,0.0,0.0,0.0,0.0,0.0,0.0
65.0,-0.0010838927356582016,-0.0004120915171835991,0.24675592028726964,8.667669283934127e-05,-0.0006050821158157269,-0.00010456753690926366,-0.05062229606608439,0.007030004550464036,-0.00044753380070338257,-0.008824352558302544,-0.040642465778773014,0.0014614306318808132,0.7751107727672696,0.14649280854877456,0.015044069981911807,-0.21762625822837212,0.6380042407108071,0.04431955932089848,0.0,0.0,0.25,0.0,0.0,0.0,0.0,0.0,0.0,0.0,0.0,0.0,0.0,0.0,0.0,0.0,0.0,0.0
66.0,-0.0008574718247728103,-0.00043850149617778234,0.24675798756563125,0.0001192323877400558,-0.00042276625328547775,-0.00010977261740428593,-0.05289381847501224,0.006279356913126777,-0.0004272186682740363,-0.0077493704258897135,-0.04255104919902565,0.0012608774471181256,0.5590830075225065,0.17055748573404997,0.009340708013383818,-0.2469405646861468,0.46426649500544953,0.047583319967587516,0.0,0.0,0.25,0.0,0.0,0.0,0.0,0.0,0.0,0.0,0.0,0.0,0.0,0.0,0.0,0.0,0.0,0.0
67.0,-0.0006257710807589975,-0.00046127618743856835,0.2467594613170656,0.00014672513467846063,-0.00023577904822895,-0.00011409964123925974,-0.054243922158952615,0.0054474593711923425,-0.00037579477833293455,-0.006579087263013612,-0.04371593110995617,0.0010513476394728805,0.3428275883585985,0.19022110937386597,0.003601568241306408,-0.270129827393791,0.28992774206098204,0.04985709624087165,0.0,0.0,0.25,0.0,0.0,0.0,0.0,0.0,0.0,0.0,0.0,0.0,0.0,0.0,0.0,0.0,0.0,0.0
68.0,-0.0003926410532682859,-0.0004801661798395925,0.24676034545382086,0.00016886076319988117,-4.727989451961349e-05,-0.00011752439603477986,-0.05468803383575041,0.0045540365108499405,-0.00030268649610228743,-0.005339599574883862,-0.044145905040467406,0.0008365201333064321,0.12976119127464977,0.20532713029565464,-0.001629368450545436,-0.28708670841052325,0.11769549242923366,0.05118620694505072,0.0,0.0,0.25,0.0,0.0,0.0,0.0,0.0,0.0,0.0,0.0,0.0,0.0,0.0,0.0,0.0,0.0,0.0
69.0,-0.00016180137951824736,-0.0004950078280637208,0.24676068291013073,0.00018545957344976276,0.00013966680098691947,-0.00012003735232539378,-0.05425522520191365,0.0036190071941019017,-0.00021720785366639004,-0.004057190064770855,-0.043861337227467746,0.0006199418330032954,-0.07688624746516864,0.21581310411093624,-0.005959860567564451,-0.29781183259216176,-0.04982699479904221,0.05162061071693638,0.0,0.0,0.25,0.0,0.0,0.0,0.0,0.0,0.0,0.0,0.0,0.0,0.0,0.0,0.0,0.0,0.0,0.0
70.0,6.321248021376516e-05,-0.0005057220997806785,0.24676054372272932,0.0001964559403360097,0.000322139983586459,-0.00012164340862466778,-0.052987206949057404,0.002662096183018987,-0.00012787458953273783,-0.0027578681669012074,-0.04289350303389527,0.00040501020843091904,-0.2741153222241774,0.2217073477026343,-0.009151211899029654,-0.30241006189558556,-0.210181585274935,0.05121423456623773,0.0,0.0,0.25,0.0,0.0,0.0,0.0,0.0,0.0,0.0,0.0,0.0,0.0,0.0,0.0,0.0,0.0,0.0
71.0,0.0002790974744910904,-0.0005123118787980581,0.24676001455412921,0.00020189545638814722,0.0004974056078624857,-0.00012236145711751772,-0.05093716449792725,0.0017024688255985613,-4.1934153232377215e-05,-0.0014669093994486792,-0.04128371627688824,0.00019495092235440815,-0.45919538295700996,0.22312399223451973,-0.011106702583241661,-0.3010860326736315,-0.3610944178335211,0.05002474073057958,0.0,0.0,0.25,0.0,0.0,0.0,0.0,0.0,0.0,0.0,0.0,0.0,0.0,0.0,0.0,0.0,0.0,0.0
72.0,0.0004828256045329136,-0.0005148578519729717,0.24675919011296668,0.00020192970760863762,0.0006629549099967882,-0.00012222374365624447,-0.04816846031937495,0.0007583946398860374,3.49025694375634e-05,-0.00020840667033027752,-0.03908228168835156,-7.2089458163577925e-06,-0.6296968511849468,0.22025661365807303,-0.01185077311414483,-0.29413858434829976,-0.500511769614218,0.04811355712161524,0.0,0.0,0.25,0.0,0.0,0.0,0.0,0.0,0.0,0.0,0.0,0.0,0.0,0.0,0.0,0.0,0.0,0.0
73.0,0.000671680534765415,-0.0005135131265301098,0.24675816629545883,0.00019680886176895343,0.000816536774044659,-0.00012127500601003811,-0.04475322872878335,-0.00015305524225540823,9.855704078876983e-05,0.000995152796638944,-0.036347305206084174,-0.00019867085559765674,-0.7835173910359001,0.213370640536718,-0.01150286048238552,-0.28195380623893596,-0.6266313081938398,0.045546011116587126,0.0,0.0,0.25,0.0,0.0,0.0,0.0,0.0,0.0,0.0,0.0,0.0,0.0,0.0,0.0,0.0,0.0,0.0
74.0,0.000843287836205841,-0.0005084967415117599,0.24675703474585897,0.0001868723413511106,0.0009561839601048013,-0.00011957139222849652,-0.04077088962225876,-0.0010162727226923612,0.00014654185777716373,0.00212327187503684,-0.03314339885622247,-0.000376896265577249,-0.9189018034866844,0.20279475220461946,-0.010249275549009777,-0.2649965556217963,-0.737927697402027,0.04239143125651028,0.0,0.0,0.25,0.0,0.0,0.0,0.0,0.0,0.0,0.0,0.0,0.0,0.0,0.0,0.0,0.0,0.0,0.0
75.0,0.0009956386464470895,-0.0005000862519420452,0.24675587870256394,0.00017253794906201816,0.0010802332121072435,-0.00011717917874650136,-0.03630660777630311,-0.0018173363606128704,0.00017781918065344046,0.0031577778557894754,-0.029540316896850858,-0.0005396376950549397,-1.0344556123201554,0.1889114881273649,-0.008315838121327844,-0.2438004359593203,-0.833171851356995,0.03872311268856617,0.0,0.0,0.25,0.0,0.0,0.0,0.0,0.0,0.0,0.0,0.0,0.0,0.0,0.0,0.0,0.0,0.0,0.0
76.0,0.0011271066397886933,-0.0004886095731908535,0.24675477003511578,0.00015428983925547732,0.0011873394140342604,-0.00011417331972806704,-0.031449724070891714,-0.00254419179660326,0.0001925932550270118,0.004083097558825795,-0.025611558118529658,-0.0006849674592061582,-1.1291524062258627,0.17214729220258315,-0.005943253693942045,-0.21895635403967034,-0.9114434596194039,0.034618076322398314,0.0,0.0,0.25,0.0,0.0,0.0,0.0,0.0,0.0,0.0,0.0,0.0,0.0,0.0,0.0,0.0,0.0,0.0
77.0,0.0012364583125926375,-0.00047443627634216764,0.24675376741731564,0.00013266569833972946,0.0012764838734753209,-0.00011063585951694139,-0.026292184339882122,-0.0031867877306873465,0.00019206736995055454,0.004886466825185298,-0.02143296635188904,-0.0008113022921791829,-1.202335092133316,0.15296221403634874,-0.003366503895347258,-0.19109988659074245,-0.9721367109302442,0.030156585504281002,0.0,0.0,0.25,0.0,0.0,0.0,0.0,0.0,0.0,0.0,0.0,0.0,0.0,0.0,0.0,0.0,0.0,0.0
78.0,0.0013228566921290456,-0.0004579685257647463,0.24675291573531816,0.00010824344147659558,0.0013469767782808644,-0.00010665424099344818,-0.02092699053033563,-0.003737167109805151,0.00017819047981903195,0.005558070765112463,-0.017081357853287165,-0.0009174223400433996,-1.253711299460262,0.13183948338372606,-0.0007988881401935775,-0.16089777297177635,-1.0149594069840615,0.025421415000196027,0.0,0.0,0.25,0.0,0.0,0.0,0.0,0.0,0.0,0.0,0.0,0.0,0.0,0.0,0.0,0.0,0.0,0.0
79.0,0.0013858586763196344,-0.00043963184763800124,0.24675224663795794,8.162772939902593e-05,0.001398454009915426,-0.00010231954918114627,-0.015446697497025307,-0.004189514040999518,0.0001534130617846371,0.006091113800575855,-0.0126332005932633,-0.0010024833615886138,-1.2833432526936712,0.10927516438744012,0.0015791683721366996,-0.1290339069783676,-1.0399258714870108,0.020496893342545706,0.0,0.0,0.25,0.0,0.0,0.0,0.0,0.0,0.0,0.0,0.0,0.0,0.0,0.0,0.0,0.0,0.0,0.0
80.0,0.0014254062965015017,-0.0004198659139122051,0.24675177968946424,5.343664514069304e-05,0.001430868883171007,-9.77247444244981e-05,-0.009941977106827392,-0.00454015775408139,0.00012046581079708733,0.006481820971446394,-0.008163366618410047,-0.0010660213888452716,-1.2916324998593207,0.08576808343030766,0.003626819289766012,-0.09619522724526927,-1.0473442199106608,0.015467759937486754,0.0,0.0,0.25,0.0,0.0,0.0,0.0,0.0,0.0,0.0,0.0,0.0,0.0,0.0,0.0,0.0,0.0,0.0
81.0,0.001441812280442536,-0.00039911551578757695,0.24675152358850855,2.4288845902033517e-05,0.0014444793671186584,-9.296293531644847e-05,-0.004500269416223844,-0.004787535680375579,8.216886779517042e-05,0.006729374099252342,-0.003743974725957426,-0.0011079495365033294,-1.2792999463112789,0.06181020877878088,0.005245558293541413,-0.06305790450563967,-1.0377986633117378,0.010417892191892012,0.0,0.0,0.25,0.0,0.0,0.0,0.0,0.0,0.0,0.0,0.0,0.0,0.0,0.0,0.0,0.0,0.0,0.0
82.0,0.0014357403674722534,-0.00037782188821477774,0.2467514772683201,-5.208571684541366e-06,0.0014398312089750314,-8.812573126043912e-05,0.0007954614518321931,-0.0049321183813934785,4.127411447692432e-05,0.006835788138145092,0.0005566630014133787,-0.0011285470696136045,-1.2473616963063372,0.03787764218106647,0.006378727379420405,-0.03027419926902223,-1.0121275804854153,0.005428965315596469,0.0,0.0,0.25,0.0,0.0,0.0,0.0,0.0,0.0,0.0,0.0,0.0,0.0,0.0,0.0,0.0,0.0,0.0
83.0,0.0014081808951345806,-0.0003564145313586587,0.24675163086908214,-3.447130824093463e-05,0.0014177373002950628,-8.330170437699942e-05,0.005867851432826728,-0.004976299643915138,3.3930775565787413e-07,0.006805734328017781,0.004674980415457009,-0.0011284412062052493,-1.19710124853785,0.014422362638118882,0.0070085105440199115,0.001539679336780024,-0.9713981143004108,0.0005791088859838727,0.0,0.0,0.25,0.0,0.0,0.0,0.0,0.0,0.0,0.0,0.0,0.0,0.0,0.0,0.0,0.0,0.0,0.0
84.0,0.001360422228522756,-0.0003353036595701666,0.24675196660075868,-6.294804813301714e-05,0.0013792537235110607,-7.857498794736874e-05,0.01064612782727673,-0.00492425554991864,-3.83692698791326e-05,0.006646317603189788,0.00855297448028206,-0.0011085824251433616,-1.1300386258147654,-0.008135158867566335,0.007151124821299055,0.03181443794642204,-0.9168780394809782,-0.0040583793991252155,0.0,0.0,0.25,0.0,0.0,0.0,0.0,0.0,0.0,0.0,0.0,0.0,0.0,0.0,0.0,0.0,0.0,0.0
85.0,0.0012940186475768327,-0.0003148733895304849,0.24675245952741826,-9.01294747512243e-05,0.0013256529310340358,-7.402403088278295e-05,0.015066957556219,-0.0047817767274854,-7.294952609187144e-05,0.00636681616400946,0.01213889478412018,-0.0010702142633896826,-1.0478970431374717,-0.029412377382741994,0.006850846588347663,0.06003707274554346,-0.8500056196298155,-0.008416209992530871,0.0,0.0,0.25,0.0,0.0,0.0,0.0,0.0,0.0,0.0,0.0,0.0,0.0,0.0,0.0,0.0,0.0,0.0
86.0,0.0012107553386873434,-0.00029547576136421013,0.24675307842278307,-0.00011555600428273347,0.001258394626444534,-6.97205260146966e-05,0.01907514478404745,-0.004556078290136977,-0.00010191485071028579,0.005978391271209396,0.015387801710220925,-0.0010148387220584533,-0.9525677324417952,-0.049070051529540804,0.006173414064122868,0.08575860231607943,-0.7723581292051794,-0.012434125392228084,0.0,0.0,0.25,0.0,0.0,0.0,0.0,0.0,0.0,0.0,0.0,0.0,0.0,0.0,0.0,0.0,0.0,0.0
87.0,0.0011126111601076388,-0.00027742566611420403,0.24675378703915168,-0.00013882413394003445,0.0011790949621654078,-6.572852441019468e-05,0.022624172996693174,-0.004255592175694842,-0.0001242257234294019,0.005493775242222294,0.01826199143158833,-0.0009441784609115881,-0.8460735463202893,-0.06681653067244696,0.005199247082645686,0.10860007026595864,-0.6856196680562044,-0.01605974116771557,0.0,0.0,0.25,0.0,0.0,0.0,0.0,0.0,0.0,0.0,0.0,0.0,0.0,0.0,0.0,0.0,0.0,0.0
88.0,0.0010017198563613203,-0.0002609967321263913,0.24675454601911445,-0.00015959135859557188,0.0010894946186364373,-6.210373985648315e-05,0.02567658926414986,-0.003889746700876505,-0.00013930172814398414,0.0049269453492913826,0.020731287624925945,-0.000860136950115371,-0.7305319573265295,-0.0824109248575953,0.0040168361273068606,0.1282567840911501,-0.5915488466342151,-0.01924918591678397,0.0,0.0,0.25,0.0,0.0,0.0,0.0,0.0,0.0,0.0,0.0,0.0,0.0,0.0,0.0,0.0,0.0,0.0
89.0,0.0008803303908267371,-0.0002464181994847677,0.2467553153397905,-0.0001775796907814134,0.000991426175868918,-5.889303422918433e-05,0.02820423098263637,-0.0034687381549507227,-0.00014701297181841545,0.004292790860234086,0.02277320138073101,-0.0007647576727172258,-0.6081180544418546,-0.0956651531154939,0.002716580555335701,0.1445008051825971,-0.4919468719324418,-0.02196753363881652,0.0,0.0,0.25,0.0,0.0,0.0,0.0,0.0,0.0,0.0,0.0,0.0,0.0,0.0,0.0,0.0,0.0,0.0
90.0,0.0007507670512946522,-0.00023387279201081166,0.24675605704069736,-0.00019257784151028616,0.0008867812136479803,-5.61340722684068e-05,0.03018829784228079,-0.0030032991683901747,-0.00014764990367769056,0.0036067798769269755,0.024372962269639507,-0.0006601833458607276,-0.4810281145185107,-0.10644488714744435,0.0013853004409922977,0.15718174522015582,-0.38862651868612297,-0.024189032313192284,0.0,0.0,0.25,0.0,0.0,0.0,0.0,0.0,0.0,0.0,0.0,0.0,0.0,0.0,0.0,0.0,0.0,0.0
91.0,0.0006153899612913093,-0.0002234955770392021,0.24675673790461017,-0.00020444210070135957,0.0007774776769024981,-5.385513589361057e-05,0.031619274068255605,-0.0025044684176678406,-0.00014187171664522869,0.0028846320146186906,0.025523425078338158,-0.0005486159759059624,-0.3514442947312182,-0.11466942747858093,0.0001016021131156674,0.1662259564444176,-0.28338242705198907,-0.025897140844720785,0.0,0.0,0.25,0.0,0.0,0.0,0.0,0.0,0.0,0.0,0.0,0.0,0.0,0.0,0.0,0.0,0.0,0.0
92.0,0.00047655659796002887,-0.00021537378623235777,0.2467573316136667,-0.00021309592929892953,0.0006654281587280071,-5.207509304539035e-05,0.03249670811096877,-0.0019833659742781603,-0.00013063556966476416,0.0021420024235872877,0.02622485848944549,-0.00043227840502897886,-0.2215009530979862,-0.12031056753877774,-0.0010677633506794909,0.17163422830517627,-0.17796312541918496,-0.027084392686055572,0.0,0.0,0.25,0.0,0.0,0.0,0.0,0.0,0.0,0.0,0.0,0.0,0.0,0.0,0.0,0.0,0.0,0.0
93.0,0.0003365848785397321,-0.00020954755305796691,0.24675782003425625,-0.00021852828712082023,0.0005525096979899017,-5.0803513634202676e-05,0.03282885889316743,-0.001450978284116544,-0.00011511119492426098,0.001394182213405736,0.026484623895602098,-0.00031337785835346707,-0.09325305886736047,-0.12339051755558418,-0.0020704536217628104,0.17347812211903718,-0.07404513317115788,-0.02775210830554247,0.0,0.0,0.25,0.0,0.0,0.0,0.0,0.0,0.0,0.0,0.0,0.0,0.0,0.0,0.0,0.0,0.0,0.0
94.0,0.00019771833340137215,-0.00020601150732484156,0.24675819362134999,-0.00022079076184013393,0.00044053552573252813,-5.004092014826316e-05,0.032632219440852324,-0.0009179563818216268,-9.658734891884175e-05,0.0006558199546718493,0.026316754380288028,-0.00019407186554716438,0.03135289604791018,-0.12397897439136904,-0.0028699572203209427,0.17189509016545368,0.026790548705550064,-0.027909980365039874,0.0,0.0,0.25,0.0,0.0,0.0,0.0,0.0,0.0,0.0,0.0,0.0,0.0,0.0,0.0,0.0,0.0,0.0
95.0,6.20938306657567e-05,-0.00020471715336273225,0.24675845108913824,-0.00021999359939011106,0.000331229101730586,-4.977915863794008e-05,0.03193093021470819,-0.0003944305134630553,-7.637753270631506e-05,-5.933147006844572e-05,0.025741445433668266,-7.643681055064646e-05,0.15050512841791872,-0.12218943536428584,-0.003445900094984656,0.1670825374573005,0.12307930228780427,-0.027575555273246205,0.0,0.0,0.25,0.0,0.0,0.0,0.0,0.0,0.0,0.0,0.0,0.0,0.0,0.0,0.0,0.0,0.0,0.0
96.0,-6.828774045988684e-05,-0.00020557594772924499,0.24675859849905954,-0.0002163007556086076,0.00022620073314478153,-5.000187696542641e-05,0.030756095704358152,0.00011015612913655364,-5.5732343562076304e-05,-0.0007386388711828431,0.02478447009562832,3.756073847949991e-05,0.2625496400672392,-0.11817486354828914,-0.003793315983161459,0.1592909941400593,0.21349091078590532,-0.02677363304649107,0.0,0.0,0.25,0.0,0.0,0.0,0.0,0.0,0.0,0.0,0.0,0.0,0.0,0.0,0.0,0.0,0.0,0.0
97.0,-0.00019158748439379497,-0.00020846298314575217,0.24675864790916044,-0.0002099241088783778,0.0001269270301960139,-5.06850989990908e-05,0.029145018836464632,0.0005871923568296488,-3.5764923211034894e-05,-0.001370780393168025,0.023476531936478976,0.00014608984457754754,0.3660099023480055,-0.11212281899422213,-0.003921021603882972,0.14881657446125351,0.29684458601818725,-0.025535604556846732,0.0,0.0,0.25,0.0,0.0,0.0,0.0,0.0,0.0,0.0,0.0,0.0,0.0,0.0,0.0,0.0,0.0,0.0
98.0,-0.0003061509334231848,-0.00021322117869806062,0.24675861571416027,-0.00020111698655667537,3.4733386624775375e-05,-5.179788412943167e-05,0.027140368471053326,0.0010290209228486257,-1.7394505198597027e-05,-0.0019459022512576063,0.02185256963714296,0.0002474781387683927,0.45960297403792366,-0.10425017474763708,-0.003849291146217939,0.13599290436924352,0.37212092021683674,-0.023898741717289014,0.0,0.0,0.25,0.0,0.0,0.0,0.0,0.0,0.0,0.0,0.0,0.0,0.0,0.0,0.0,0.0,0.0,0.0
99.0,-0.0004105266918365212,-0.00021966587170792784,0.24675852078747465,-0.00019016716778641346,-4.92203622266673e-05,-5.330306351007566e-05,0.024789295715152062,0.001429036282345061,-1.3112499723811316e-06,-0.0024557387952239764,0.019951026943644364,0.00034023187804928733,0.542251940643787,-0.09479753850476931,-0.003607063404618602,0.12118270354340377,0.4384707349247416,-0.021905452381259627,0.0,0.0,0.25,0.0,0.0,0.0,0.0,0.0,0.0,0.0,0.0,0.0,0.0,0.0,0.0,0.0,0.0,0.0
100.0,-0.0005034811471400254,-0.00022758970418776912,0.24675838251850302,-0.00017738952766456506,-0.00012395102494740546,-5.5158044192739965e-05,0.02214251497088806,0.001781757516281155,1.2036473992723084e-05,-0.002893694982667503,0.01781310146018592,0.00042305312524565304,0.6130946251679767,-0.08402350033634935,-0.0032289344882762243,0.10476920833038254,0.4952208543177231,-0.01960250812228259,0.0,0.0,0.25,0.0,0.0,0.0,0.0,0.0,0.0,0.0,0.0,0.0,0.0,0.0,0.0,0.0,0.0,0.0
101.0,-0.0005840091745037951,-0.00023676769653395728,0.24675821893045924,-0.00016311850131368416,-0.00018865988065556845,-5.731567195271345e-05,0.019253365563469474,0.0020828762667835215,2.2433370287660028e-05,-0.0032548912499055366,0.015481985122811839,0.0004948540358278157,0.6714885809312262,-0.07219882424994128,-0.0027521864678754,0.08714761896028492,0.541876879675859,-0.017040249953768453,0.0,0.0,0.25,0.0,0.0,0.0,0.0,0.0,0.0,0.0,0.0,0.0,0.0,0.0,0.0,0.0,0.0,0.0
102.0,-0.0006513408249141668,-0.0002469624024647457,0.24675804523445713,-0.00014770056596921625,-0.00024273739612143543,-5.972513901543428e-05,0.01617686947424568,0.0023292800116479617,2.987024231239182e-05,-0.003536171695084181,0.013002108306755404,0.0005547682112722716,0.7170124351265751,-0.059600696619774185,-0.0022140771505229323,0.06871674700741284,0.5781230844864357,-0.01427177472009392,0.0,0.0,0.25,0.0,0.0,0.0,0.0,0.0,0.0,0.0,0.0,0.0,0.0,0.0,0.0,0.0,0.0,0.0
103.0,-0.0007049440525077319,-0.0002579290434710653,0.24675787307734165,-0.00013148692150992806,-0.0002857649581124749,-6.23329256023934e-05,0.01296880015019875,0.002519051456273686,3.450385807281172e-05,-0.0037360773763670065,0.010418398489370845,0.0006021590474271439,0.7494637065593621,-0.04650713788185523,-0.0016495705806427073,0.049871027128214514,0.6038195850467551,-0.011352103522843045,0.0,0.0,0.25,0.0,0.0,0.0,0.0,0.0,0.0,0.0,0.0,0.0,0.0,0.0,0.0,0.0,0.0,0.0
104.0,-0.0007445235954586063,-0.0002694205264233251,0.24675771044093034,-0.00011482650011309566,-0.0003175136915464835,-6.508376685847764e-05,0.009684776591732284,0.0026514452348615344,3.6609945149809174e-05,-0.0038547873019386166,0.007775563393536985,0.0006366249719294792,0.768853271739762,-0.03319167558794353,-0.0010896267945629174,0.03099304085941538,0.6189969695403922,-0.008337333237425311,0.0,0.0,0.25,0.0,0.0,0.0,0.0,0.0,0.0,0.0,0.0,0.0,0.0,0.0,0.0,0.0,0.0,0.0
105.0,-0.0007700161822475015,-0.00028119225538218186,0.24675756203232346,-9.805940502389924e-05,-0.0003379404082827278,-6.792163827874941e-05,0.006379395956237781,0.002726843483542153,3.6535813663835915e-05,-0.003894030291283813,0.0051174076843059895,0.0006580014315492055,0.7753966994652772,-0.019918367168671472,-0.0005601001468453579,0.01244668032685483,0.6238485902516746,-0.005283772931060642,0.0,0.0,0.25,0.0,0.0,0.0,0.0,0.0,0.0,0.0,0.0,0.0,0.0,0.0,0.0,0.0,0.0,0.0
106.0,-0.0007815822846328253,-0.00029300665622333837,0.24675743003413592,-8.151086530155538e-05,-0.000347180823770753,-7.079074834166333e-05,0.003105416778901945,0.0027466921719949385,3.465832464176351e-05,-0.003856971310170296,0.0024861915518553535,0.0006663594675984963,0.7695027146928942,-0.006937249819730538,-8.122693657319215e-05,-0.005428942928583168,0.6187207402031305,-0.0022470687260205983,0.0,0.0,0.25,0.0,0.0,0.0,0.0,0.0,0.0,0.0,0.0,0.0,0.0,0.0,0.0,0.0,0.0,0.0
107.0,-0.0007795946853554323,-0.00030463734253445877,0.2467573151162816,-6.548578115277911e-05,-0.00034554021130315426,-7.363652558658283e-05,-8.699637016317929e-05,0.002713420354023209,3.135138925155845e-05,-0.0037480761555634227,-7.796123691642933e-05,0.0006620007163199893,0.7517590873989674,0.005519716951001351,0.000332376151148337,-0.022324763015318754,0.6041009484476981,0.0007186768178481883,0.0,0.0,0.25,0.0,0.0,0.0,0.0,0.0,0.0,0.0,0.0,0.0,0.0,0.0,0.0,0.0,0.0,0.0
108.0,-0.0007646241670783727,-0.00031587286029878005,0.24675721752372587,-5.026393899179863e-05,-0.0003334817824721446,-7.640658131233513e-05,-0.003150957375492216,0.0026303447191229207,2.696516418656535e-05,-0.003572958531066042,-0.0025375991071970704,0.0006454486995892998,0.7229162709217438,0.017242163135615166,0.000671323836829697,-0.03796614229128062,0.5806046386313244,0.0035617816617363376,0.0,0.0,0.25,0.0,0.0,0.0,0.0,0.0,0.0,0.0,0.0,0.0,0.0,0.0,0.0,0.0,0.0,0.0
109.0,-0.0007374226635666222,-0.0003265199596139404,0.24675713787909967,-3.6095982928117655e-05,-0.0003116131467559038,-7.905162583840722e-05,-0.00604346428973284,0.0025015619941922136,2.1816873327255005e-05,-0.0033382136294598064,-0.004858416569115778,0.0006174363310585465,0.683869136759317,0.02804423439785469,0.0009308266401462551,-0.05211633917084759,0.5489604039621773,0.006233845166353153,0.0,0.0,0.25,0.0,0.0,0.0,0.0,0.0,0.0,0.0,0.0,0.0,0.0,0.0,0.0,0.0,0.0,0.0
110.0,-0.0006989042386877483,-0.000336406353561745,0.2467570774545617,-2.32001866321937e-05,-0.0002806711693381213,-8.152631783560329e-05,-0.00872591990600404,0.002331831854913669,1.6191131574622974e-05,-0.00305124231453297,-0.007009661610503581,0.000578889648188759,0.6356371688564666,0.03776690574488893,0.0011099491481071763,-0.06457905133442869,0.5099941587564278,0.008690577312996123,0.0,0.0,0.25,0.0,0.0,0.0,0.0,0.0,0.0,0.0,0.0,0.0,0.0,0.0,0.0,0.0,0.0,0.0
111.0,-0.0006501242781278602,-0.0003453829385691161,0.24675703799847407,-1.176000550220916e-05,-0.0002415054123092763,-8.379003369913541e-05,-0.011164562417291364,0.0021264530583584274,1.0346256067271295e-05,-0.0027200698444438554,-0.0089644729723888,0.0005309078815166192,0.5793434900742227,0.0462796688794515,0.001210882350096393,-0.07520004483477043,0.46461243247169065,0.010892577987874068,0.0,0.0,0.25,0.0,0.0,0.0,0.0,0.0,0.0,0.0,0.0,0.0,0.0,0.0,0.0,0.0,0.0,0.0
112.0,-0.0005922572906257909,-0.0003533254618153253,0.24675702132456628,-1.9223761310618405e-06,-0.0001950603872085296,-8.58075432045366e-05,-0.013330802992735567,0.0018911355027770864,4.522619696067692e-06,-0.0023531628117469477,-0.010700144604065258,0.0004747400817845785,0.5161930969202791,0.05348159209677366,0.001238314697544012,-0.08386789713098945,0.4137850766315755,0.012806046089941316,0.0,0.0,0.25,0.0,0.0,0.0,0.0,0.0,0.0,0.0,0.0,0.0,0.0,0.0,0.0,0.0,0.0,0.0
113.0,-0.0005265737225920706,-0.00036013563232904685,0.2467570288258207,6.203256687155408e-06,-0.0001423569168053141,-8.754957627474853e-05,-0.015201468686348887,0.0016318708612387803,-1.050450732484655e-06,-0.0019592476486360887,-0.012198315520368885,0.0004117586414426262,0.44745067594734994,0.0593017636785369,0.0011989439803617868,-0.09051389658041559,0.35852765806680686,0.014403397236243938,0.0,0.0,0.25,0.0,0.0,0.0,0.0,0.0,0.0,0.0,0.0,0.0,0.0,0.0,0.0,0.0,0.0,0.0
114.0,-0.0004544161892621488,-0.0003657416821816178,0.24675706102078435,1.2545197163160458e-05,-8.447297003251056e-05,-8.899326456361355e-05,-0.016758950640409567,0.0013548043283847701,-6.151743823424615e-06,-0.0015471337286014383,-0.013445084348304093,0.0003434301685196965,0.37441836680551827,0.06369914101017451,0.0011011302424117856,-0.09511115241745148,0.29988381283203486,0.015663768996878935,0.0,0.0,0.25,0.0,0.0,0.0,0.0,0.0,0.0,0.0,0.0,0.0,0.0,0.0,0.0,0.0,0.0,0.0
115.0,-0.00037717551911728724,-0.000370098394560873,0.2467571171838514,1.7069053294218623e-05,-2.2524339711195477e-05,-9.012244411187294e-05,-0.017991259031651233,0.0010661098697344643,-1.0570537302817182e-05,-0.0011255438233623422,-0.014431049087793236,0.00027128429267623974,0.29841382314201365,0.06666183792148013,0.0009546553761331179,-0.0976729780851669,0.23890783301575758,0.016573393994270637,0.0,0.0,0.25,0.0,0.0,0.0,0.0,0.0,0.0,0.0,0.0,0.0,0.0,0.0,0.0,0.0,0.0,0.0
116.0,-0.0002962669953541505,-0.00037318662431641667,0.24675719506050423,1.977661030410596e-05,4.235446985791012e-05,-9.092780823199475e-05,-0.018891987612592503,0.0007718711758643074,-1.4114472104776558e-05,-0.0007029544405506505,-0.0151512739512613,0.00019688109548770145,0.22074890381938755,0.06820589187084554,0.0007705323156726884,-0.09825061749086797,0.1766477523218054,0.01712582386749142,0.0,0.0,0.25,0.0,0.0,0.0,0.0,0.0,0.0,0.0,0.0,0.0,0.0,0.0,0.0,0.0,0.0,0.0
117.0,-0.0002131071598113062,-0.00037501234537132874,0.2467572906290288,2.070405876887374e-05,0.00010902881565551401,-9.140690501528535e-05,-0.019460192003766398,0.0004779703042738794,-1.662209963018891e-05,-0.00028744834068720993,-0.015605186463978665,0.00012177794794664509,0.1427093037666889,0.06837356044211414,0.0005607981780883394,-0.09693038890386067,0.1141291848357121,0.017321990959592522,0.0,0.0,0.25,0.0,0.0,0.0,0.0,0.0,0.0,0.0,0.0,0.0,0.0,0.0,0.0,0.0,0.0,0.0
118.0,-0.00012909152075305205,-0.00037560526709857177,0.24675739796196786,1.9919645810356747e-05,0.00017638169849579574,-9.156398087851435e-05,-0.019700187078264753,0.00018998574495426247,-1.7978352342297136e-05,0.00011341872575653438,-0.015796409181256806,4.74965974466837e-05,0.06553540672891615,0.0672312031150636,0.0003382314277265255,-0.09383032528189024,0.05234015431336661,0.01717009946984663,0.0,0.0,0.25,0.0,0.0,0.0,0.0,0.0,0.0,0.0,0.0,0.0,0.0,0.0,0.0,0.0,0.0,0.0
119.0,-4.557347678400833e-05,-0.00037501706917887715,0.24675750942984345,1.7520855338251485e-05,0.00024333059775556536,-9.140967983177779e-05,-0.019621269834060057,-8.689862251088935e-05,-1.8130365714642334e-05,0.0004927353255915054,-0.01573253135443207,-2.4508631590787692e-05,-0.009595388186809644,0.06486680935388764,0.00011595141878334416,-0.08909639312489785,-0.007782871328966968,0.01668534347839788,0.0,0.0,0.25,0.0,0.0,0.0,0.0,0.0,0.0,0.0,0.0,0.0,0.0,0.0,0.0,0.0,0.0,0.0
120.0,3.615526113894605e-05,-0.0003733193082467402,0.24675761639253962,1.3631203490588387e-05,0.00030884315648523037,-9.09606090149204e-05,-0.019237375062018686,-0.0003479724948323868,-1.7100526117677062e-05,0.0008443342891139905,-0.015424826701044786,-9.28806736873062e-05,-0.08158464735564423,0.061387237713490694,-9.311390115999606e-05,-0.08289837468418772,-0.06536755344222918,0.01588945539561987,0.0,0.0,0.25,0.0,0.0,0.0,0.0,0.0,0.0,0.0,0.0,0.0,0.0,0.0,0.0,0.0,0.0,0.0
121.0,0.0001148825009749824,-0.0003706010515398616,0.24675771021314766,8.396692295250146e-06,0.000371951416291393,-9.023877892740661e-05,-0.018566671881723774,-0.0005890651371350584,-1.4993642601129692e-05,0.001162874203058357,-0.0148879241948465,-0.00015638679053273823,-0.1494270072509845,0.056915232903682764,-0.0002768745882599891,-0.07542550056497008,-0.11961670933486063,0.014810094679933439,0.0,0.0,0.25,0.0,0.0,0.0,0.0,0.0,0.0,0.0,0.0,0.0,0.0,0.0,0.0,0.0,0.0,0.0
122.0,0.00018949144190421092,-0.00036696629497307525,0.2467577833270791,1.9819686400504654e-06,0.0004317643544927635,-8.927093092578338e-05,-0.017631109828018618,-0.0008065977931935818,-1.1995914562379314e-05,0.0014439016417032078,-0.014139439492168983,-0.00021394214048802416,-0.21222225589965538,0.05158628861803957,-0.00042479168312199803,-0.06688192141682038,-0.1698176732947982,0.013480092766253796,0.0,0.0,0.25,0.0,0.0,0.0,0.0,0.0,0.0,0.0,0.0,0.0,0.0,0.0,0.0,0.0,0.0,0.0
123.0,0.00025897441588350296,-0.00036253122509546535,0.24675783016286992,-5.433733855844892e-06,0.00048747858027928487,-8.808777111689469e-05,-0.016455923623906778,-0.0009976221900151675,-8.364729957540856e-06,0.0016838936188240381,-0.013199575133062972,-0.00026462922124521914,-0.26918528180958756,0.04554542349178581,-0.000528585294482956,-0.05748210834736103,-0.215349911007126,0.01193657572120036,0.0,0.0,0.25,0.0,0.0,0.0,0.0,0.0,0.0,0.0,0.0,0.0,0.0,0.0,0.0,0.0,0.0,0.0
124.0,0.0003224443667336089,-0.0003574213850103768,0.24675784778052837,-1.3660773252777018e-05,0.0005383871409169328,-8.672313481194583e-05,-0.015069106066995668,-0.0011598450899404464,-4.409892789036676e-06,0.0018802800914141916,-0.012090697861955173,-0.00030771269130027107,-0.3196538188382819,0.03894393588216445,-0.0005828545516879193,-0.04744627159220665,-0.2556908450918421,0.010219990879838188,0.0,0.0,0.25,0.0,0.0,0.0,0.0,0.0,0.0,0.0,0.0,0.0,0.0,0.0,0.0,0.0,0.0,0.0
125.0,0.0003791439769792833,-0.00035176880335975055,0.24675783616115302,-2.2503292459266394e-05,0.0005838864297348564,-8.521310766387751e-05,-0.013500858586979414,-0.0012916391094579688,-4.6826688529056213e-07,0.0020314467689661166,-0.010836901261190067,-0.0003426492367223018,-0.36309395297461106,0.03193620035701195,-0.0005855278441686499,-0.036995885361356284,-0.2904198869054989,0.008373067348191918,0.0,0.0,0.25,0.0,0.0,0.0,0.0,0.0,0.0,0.0,0.0,0.0,0.0,0.0,0.0,0.0,0.0,0.0
126.0,0.0004284523926030781,-0.00034570914352537884,0.24675779814138643,-3.1763324058769254e-05,0.0006234812311546836,-8.359513067615047e-05,-0.01178302900416014,-0.0013920402748097314,3.125210972138879e-06,0.002136718957313321,-0.009463561444854158,-0.0003690923280698578,-0.39910339359716906,0.024676564933508338,-0.0005380766495737235,-0.02634940315895594,-0.3192207040044249,0.0064397425619821085,0.0,0.0,0.25,0.0,0.0,0.0,0.0,0.0,0.0,0.0,0.0,0.0,0.0,0.0,0.0,0.0,0.0,0.0
127.0,0.0004698895365945878,-0.000339378926732986,0.2467577390338397,-4.12447137305049e-05,0.0006567879360272244,-8.19071144699702e-05,-0.009948545840300924,-0.00146073301575365,6.066759744564246e-06,0.002196327647341919,-0.007996892937396964,-0.0003868918957885629,-0.42741254689483216,0.017316403340000702,-0.0004454516899284191,-0.01571824186202158,-0.34188178219350224,0.004464087944152625,0.0,0.0,0.25,0.0,0.0,0.0,0.0,0.0,0.0,0.0,0.0,0.0,0.0,0.0,0.0,0.0,0.0,0.0
128.0,0.0005031180395994097,-0.00033291287885978853,0.2467576660076535,-5.0756784447434764e-05,0.0006835359830332855,-8.018658675755432e-05,-0.008030858212423211,-0.0014980235064021084,8.109926034558137e-06,0.0022113594950822933,-0.006463511182781243,-0.0003960891285377575,-0.44788346227492576,0.010001371001225168,-0.0003157318899291808,-0.005303104325067904,-0.35829536499133263,0.002489266070541602,0.0,0.0,0.25,0.0,0.0,0.0,0.0,0.0,0.0,0.0,0.0,0.0,0.0,0.0,0.0,0.0,0.0,0.0
129.0,0.0005279428531369243,-0.00032644144550801184,0.24675758732129477,-6.011768073805256e-05,0.0007035675702183089,-7.846989319971353e-05,-0.006063389888883193,-0.001504802442393905,9.085931828160696e-06,0.0021836926886523523,-0.00489000748724977,-0.00039690675703015074,-0.46050675327816953,0.0028689072045290404,-0.00015950971664201942,0.004709300540102244,-0.3684548715366957,0.0005565497065618462,0.0,0.0,0.25,0.0,0.0,0.0,0.0,0.0,0.0,0.0,0.0,0.0,0.0,0.0,0.0,0.0,0.0,0.0
130.0,0.0005443086437346069,-0.000320088514723066,0.24675751150393768,-6.915734886150635e-05,0.0007168357061341212,-7.679146942080411e-05,-0.004079015518254002,-0.0014824984941419997,8.916269949005436e-06,0.002115920934040322,-0.0033025416417939045,-0.00038973531842438294,-0.46539662236453844,-0.00395398086443442,1.0933761922669612e-05,0.014149093855394318,-0.37245090707452555,-0.0012955702162862751,0.0,0.0,0.25,0.0,0.0,0.0,0.0,0.0,0.0,0.0,0.0,0.0,0.0,0.0,0.0,0.0,0.0,0.0
131.0,0.0005522950979941473,-0.00031396938037644376,0.24675744657438348,-7.77201235449763e-05,0.0007234006659749451,-7.518319756760587e-05,-0.002109566369561642,-0.001433023794785123,7.616614679289234e-06,0.0020112679095123723,-0.001726457007147685,-0.00037511599853122166,-0.4627841435944092,-0.010352623672100776,0.00018258816172250685,0.022865586306959597,-0.37046598932526836,-0.0030321649177479735,0.0,0.0,0.25,0.0,0.0,0.0,0.0,0.0,0.0,0.0,0.0,0.0,0.0,0.0,0.0,0.0,0.0,0.0
132.0,0.0005521102953342433,-0.00030818897330502163,0.24675739937083585,-8.566690361161078e-05,0.0007234249521764913,-7.367385830163053e-05,-0.00018537216255972152,-0.0013587129078726672,5.292121123393932e-06,0.001873494547696902,-0.00018592245147027527,-0.00035372071939259494,-0.4530089784395993,-0.016226263292400327,0.0003427184957850608,0.030729142182571778,-0.3627681205976872,-0.004622518638502557,0.0,0.0,0.25,0.0,0.0,0.0,0.0,0.0,0.0,0.0,0.0,0.0,0.0,0.0,0.0,0.0,0.0,0.0
133.0,0.000544082329864989,-0.0003028403804029399,0.24675737504383918,-9.28769082558615e-05,0.0007171668632868705,-7.228868481169547e-05,0.0016651552651266248,-0.001262256773635655,2.1250810852381193e-06,0.001706801426681097,0.001296394831698023,-0.0003263301787827764,-0.4365097175258099,-0.02148928201329593,0.0004798239943351728,0.03763254213800527,-0.34970334070721726,-0.006040637762459587,0.0,0.0,0.25,0.0,0.0,0.0,0.0,0.0,0.0,0.0,0.0,0.0,0.0,0.0,0.0,0.0,0.0,0.0
134.0,0.0005286493823209019,-0.00029800366569568843,0.24675737674187823,-9.924901217986837e-05,0.0007049728116843701,-7.104902318476515e-05,0.003415891594800827,-0.0011466331545557692,-1.6434030255651642e-06,0.0015157284136833155,0.002699621974557754,-0.0002938105581268656,-0.41381305490916176,-0.02607207918040722,0.0005844673840482869,0.0434918507526025,-0.33168740056038204,-0.007265611451164514,0.0,0.0,0.25,0.0,0.0,0.0,0.0,0.0,0.0,0.0,0.0,0.0,0.0,0.0,0.0,0.0,0.0,0.0
135.0,0.0005063484598096203,-0.0002937450005415135,0.24675740549677655,-0.00010470266330582681,0.0006872685370795989,-6.997209958464862e-05,0.005043319035436196,-0.0010150350920778784,-5.735621977085952e-06,0.001305053533862667,0.004004935333747203,-0.0002570895995447272,-0.3855220114708522,-0.029921596973064395,0.0006499070532955101,0.048246805002998286,-0.30919670118177495,-0.008281822453537098,0.0,0.0,0.25,0.0,0.0,0.0,0.0,0.0,0.0,0.0,0.0,0.0,0.0,0.0,0.0,0.0,0.0,0.0
136.0,0.00047780303276367226,-0.0002901161041756423,0.2467574602966699,-0.00010917839050371478,0.0006645493937232776,-6.907089280916987e-05,0.006526791723023985,-0.0008707988485040296,-9.861058976510354e-06,0.0010796928552045447,0.005195774921207917,-0.00021713271508242652,-0.35230343018571353,-0.033001502555425534,0.0006724865141544387,0.05186074787996634,-0.2827586480620012,-0.009079011769987762,0.0,0.0,0.25,0.0,0.0,0.0,0.0,0.0,0.0,0.0,0.0,0.0,0.0,0.0,0.0,0.0,0.0,0.0
137.0,0.0004437098070521498,-0.000287153989443207,0.24675753831892025,-0.00011263791299660646,0.0006373698916268936,-6.835410753769132e-05,0.00784874548769491,-0.0007173327436161606,-1.3739571598874912e-05,0.0008446030041817853,0.006258016243951958,-0.00017491973577560982,-0.3148749684524398,-0.035292040312925405,0.0006517605711407979,0.054320137526679135,-0.2529415756692121,-0.009652205294410307,0.0,0.0,0.25,0.0,0.0,0.0,0.0,0.0,0.0,0.0,0.0,0.0,0.0,0.0,0.0,0.0,0.0,0.0
138.0,0.0004048248729201758,-0.00028488100329539495,0.24675763528501884,-0.00011506386648828908,0.0006063326916944629,-6.782624215805812e-05,0.008994850917056907,-0.00055804820705866,-1.712201917968389e-05,0.0006046877647202423,0.007180098101780256,-0.00013142283907615626,-0.2739918114896287,-0.03678957357085225,0.0005903627211004639,0.05563366670284882,-0.22034440119574764,-0.010001514299032127,0.0,0.0,0.25,0.0,0.0,0.0,0.0,0.0,0.0,0.0,0.0,0.0,0.0,0.0,0.0,0.0,0.0,0.0
139.0,0.0003619494728637673,-0.0002833051461937652,0.2467577458940353,-0.00011645916566796487,0.0005720772504878256,-6.748774261949219e-05,0.00995410957394627,-0.00039629425795540167,-1.9806824308748656e-05,0.00036471006690231395,0.007953105626565803,-8.758611429545286e-05,-0.23043332617557488,-0.037505840213335195,0.0004936409643897707,0.05583103041180388,-0.18558616937620603,-0.010131824584737983,0.0,0.0,0.25,0.0,0.0,0.0,0.0,0.0,0.0,0.0,0.0,0.0,0.0,0.0,0.0,0.0,0.0,0.0
140.0,0.0003159156267275379,-0.0002824206502881473,0.24675786429045454,-0.00011684602674611385,0.0005352683169015045,-6.733523286920461e-05,0.01071889412163706,-0.00023529649587546118,-2.1651470907575246e-05,0.00012921053869491834,0.008570808617559038,-4.430714078405211e-05,-0.1849898668573336,-0.03746695091186931,0.0003691073963973994,0.05496138154589057,-0.14929565079455973,-0.010052391259118354,0.0,0.0,0.25,0.0,0.0,0.0,0.0,0.0,0.0,0.0,0.0,0.0,0.0,0.0,0.0,0.0,0.0,0.0
141.0,0.00026757184521689694,-0.00028220879205760347,0.24675798452531125,-0.00011626467882004432,0.0004965844728250628,-6.736181093266156e-05,0.011284933957157926,-7.810154550827355e-05,-2.2578482260965316e-05,-9.75663325033749e-05,0.009029656004528904,-2.420866018320465e-06,-0.1384499338302939,-0.036712162185758894,0.00022575936601494873,0.053091515769674184,-0.11210115390208272,-0.009776357432956692,0.0,0.0,0.25,0.0,0.0,0.0,0.0,0.0,0.0,0.0,0.0,0.0,0.0,0.0,0.0,0.0,0.0,0.0
142.0,0.00021776915246520638,-0.00028263891203882894,0.24675810097564607,-0.0001147717971019487,0.0004567069046011454,-6.755739936927551e-05,0.011651248742559857,7.247225522987012e-05,-2.2575936500334634e-05,-0.000311737509009602,0.00932872802465592,3.731401626926064e-05,-0.09158787168035226,-0.03529245922406729,7.33360699465155e-05,0.05030382786135397,-0.07462070560704086,-0.009320215684354783,0.0,0.0,0.25,0.0,0.0,0.0,0.0,0.0,0.0,0.0,0.0,0.0,0.0,0.0,0.0,0.0,0.0,0.0
143.0,0.00016734762466162636,-0.00028366961152986625,0.24675820869531329,-0.0001124386958656521,0.0004163085780340106,-6.790913830157382e-05,0.011820032944878406,0.00021387729393174102,-2.1693021743688783e-05,-0.0005098373982835307,0.00946964840313605,7.422607151927377e-05,-0.045152278801209325,-0.03326898528929669,-7.842567287815683e-05,0.04669408256299917,-0.037452746629035215,-0.00870323099687502,0.0,0.0,0.25,0.0,0.0,0.0,0.0,0.0,0.0,0.0,0.0,0.0,0.0,0.0,0.0,0.0,0.0,0.0
144.0,0.00011712363560813212,-0.00028525009441148413,0.24675830367914406,-0.00010934932244220706,0.00037604397513958123,-6.840180938851274e-05,0.01179649513963494,0.00034387178342603193,-2.003147896743055e-05,-0.0006888638982355106,0.009456459459545898,0.0001077394750024503,0.0001447185139456424,-0.030711355603558758,-0.00022047834673709173,0.042369043733733534,-0.00116747594071536,-0.007946843123322816,0.0,0.0,0.25,0.0,0.0,0.0,0.0,0.0,0.0,0.0,0.0,0.0,0.0,0.0,0.0,0.0,0.0,0.0
145.0,6.787798122129017e-05,-0.0002873216209895492,0.24675838303151434,-0.00010559809701748138,0.00033653953534952443,-6.901827943776666e-05,0.011588656392980389,0.0004605472210370154,-1.7734011932107165e-05,-0.000846314019667414,0.009295463606166805,0.00013737973982890756,0.04363719360018988,-0.02769589391068438,-0.00034504523608982324,0.03744400624049849,0.03370103612855057,-0.007074065063681003,0.0,0.0,0.25,0.0,0.0,0.0,0.0,0.0,0.0,0.0,0.0,0.0,0.0,0.0,0.0,0.0,0.0,0.0
146.0,2.0345034676016977e-05,-0.0002898190403300367,0.24675844503871022,-0.00010128764478645597,0.00029838492275440826,-6.973995288387925e-05,0.011207112508486364,0.0005623480676464035,-1.4970856968362081e-05,-0.0009802087923686275,0.008995035150716523,0.00016277691582972385,0.08471403566908908,-0.02430382944910068,-0.0004460613397958198,0.03204027546268559,0.06666186368432638,-0.0061088926859373316,0.0,0.0,0.25,0.0,0.0,0.0,0.0,0.0,0.0,0.0,0.0,0.0,0.0,0.0,0.0,0.0,0.0,0.0
147.0,-2.4796938634503162e-05,-0.000292672367758297,0.246758489151682,-9.652646829128944e-05,0.00026212522599579693,-7.054722333756899e-05,0.01066476530218616,0.0006480836629316181,-1.1925708684895197e-05,-0.0010891073537320664,0.00856540665990267,0.00018366640422514408,0.12282636372742756,-0.020619490909549794,-0.0005194530342131437,0.026282639383021434,0.09727328642193855,-0.0050757385762825805,0.0,0.0,0.25,0.0,0.0,0.0,0.0,0.0,0.0,0.0,0.0,0.0,0.0,0.0,0.0,0.0,0.0,0.0
148.0,-6.69342000843965e-05,-0.0002958083749738994,0.24675851589134637,-9.142660744078142e-05,0.00022825417213317555,-7.141991511902898e-05,0.009976528351405979,0.0007169325409500685,-8.782106331379441e-06,-0.0011721103195733423,0.008018434382182502,0.00019988757395441526,0.1574936695338715,-0.016728532148844524,-0.0005632504076755466,0.020296877820996546,0.12514783264624654,-0.003998901091895793,0.0,0.0,0.25,0.0,0.0,0.0,0.0,0.0,0.0,0.0,0.0,0.0,0.0,0.0,0.0,0.0,0.0,0.0
149.0,-0.00010552460903678704,-0.00029915216171405205,0.24675852669254983,-8.610133360870209e-05,0.00019720842255219897,-7.233770707483492e-05,0.009159012848430598,0.0007684394473432021,-5.711220601013234e-06,-0.0012288527401146429,0.007367347371982415,0.00021138039612499774,0.18830864357757293,-0.012716222054815235,-0.0005775396587632809,0.01420735227932922,0.14995626116395475,-0.002902077409540088,0.0,0.0,0.25,0.0,0.0,0.0,0.0,0.0,0.0,0.0,0.0,0.0,0.0,0.0,0.0,0.0,0.0,0.0
150.0,-0.00014010328853306187,-0.00030262867970903194,0.24675852370492737,-8.066292179168397e-05,0.00016936299152573467,-7.328053168557956e-05,0.008230199279892705,0.0008025054837965904,-2.8617656639348088e-06,-0.001259487143090523,0.006626485009797703,0.0002181803337368052,0.2149406605190089,-0.008665828084419255,-0.0005642743363198106,0.008134717993760665,0.17143045943016344,-0.0018079272096302266,0.0,0.0,0.25,0.0,0.0,0.0,0.0,0.0,0.0,0.0,0.0,0.0,0.0,0.0,0.0,0.0,0.0,0.0
151.0,-0.00017028685255049896,-0.00030616418220210176,0.2467585095695385,-7.522054157917982e-05,0.00014502781710287778,-7.422894403544256e-05,0.007209100649224036,0.0008193719153127682,-3.525199607170095e-07,-0.0012646573538251493,0.0058110275809668205,0.0002204117355089327,0.23713792248476787,-0.004657119707833547,-0.0005269728432306378,0.0021937970266508273,0.18936525504775922,-0.0007376915872920012,0.0,0.0,0.25,0.0,0.0,0.0,0.0,0.0,0.0,0.0,0.0,0.0,0.0,0.0,0.0,0.0,0.0,0.0
152.0,-0.00019577618532143083,-0.00030968757490989834,0.24675848718929427,-6.987830359446429e-05,0.0001244454860388595,-7.516445579639522e-05,0.006115422866223804,0.0008195982699929776,1.7323062213368042e-06,-0.0012454639525735364,0.0049367244690962766,0.0002182799864166796,0.25472827972988554,-0.000765014370722103,-0.0004703351871062439,-0.0035083523915600775,0.2036191563480107,0.000289130098128955,0.0,0.0,0.25,0.0,0.0,0.0,0.0,0.0,0.0,0.0,0.0,0.0,0.0,0.0,0.0,0.0,0.0,0.0
153.0,-0.00021635778685751413,-0.00031313164758864495,0.24675845950934622,-6.473349324612166e-05,0.00010779010608957001,-7.606983094463148e-05,0.004969227749742939,0.0008040354384091608,3.3448492757084205e-06,-0.00120342237696067,0.004019624346792587,0.00021206266474631328,0.2676187681735611,0.0029416152792092042,-0.00039981439357360287,-0.00887413954909758,0.21411405499415503,0.0012550443904827157,0.0,0.0,0.25,0.0,0.0,0.0,0.0,0.0,0.0,0.0,0.0,0.0,0.0,0.0,0.0,0.0,0.0,0.0
154.0,-0.00023190372026757054,-0.00031643416849621214,0.24675842932081377,-5.9875018454611806e-05,9.516729199453561e-05,-7.692934032519253e-05,0.0037906038327716676,0.0007737945396688213,4.472711343016393e-06,-0.0011404147977102416,0.0030758115149271763,0.00020209994747859075,0.27579392190515556,0.006400958180885083,-0.00032117751037926925,-0.013816892469828368,0.2208339391140216,0.0021447693026361617,0.0,0.0,0.25,0.0,0.0,0.0,0.0,0.0,0.0,0.0,0.0,0.0,0.0,0.0,0.0,0.0,0.0,0.0
155.0,-0.0002423702175272268,-0.0003195388277755462,0.24675839909806613,-5.5382092262238484e-05,8.661522566678192e-05,-7.772897363896193e-05,0.0025993498309917155,0.0007302123636782505,5.135776253592519e-06,-0.001058636986059113,0.002121152260009286,0.00018878449398163693,0.2793129357079536,0.009559095044233221,-0.00024008812963728564,-0.018262036990566548,0.22382267923530574,0.0029453828368993192,0.0,0.0,0.25,0.0,0.0,0.0,0.0,0.0,0.0,0.0,0.0,0.0,0.0,0.0,0.0,0.0,0.0,0.0
156.0,-0.0002477950186878442,-0.0003223960191476023,0.24675837087624905,-5.1323165609749604e-05,8.210672641250667e-05,-7.845660764864938e-05,0.0014146752441122651,0.0006748142239808748,5.381195112317953e-06,-0.0009605414496724232,0.0011710547747120418,0.00017255102358483456,0.27830576775393345,0.012370635405902823,-0.0001617373835071258,-0.022147990281806442,0.2231809611907806,0.0036464169440263306,0.0,0.0,0.25,0.0,0.0,0.0,0.0,0.0,0.0,0.0,0.0,0.0,0.0,0.0,0.0,0.0,0.0,0.0
157.0,-0.0002482935369068261,-0.0003249634531672563,0.24675834617238862,-4.775511951740188e-05,8.15522637450748e-05,-7.910213070493401e-05,0.00025492211274545385,0.000609275063295981,5.27708352511091e-06,-0.000848778140148514,0.0002402458260338804,0.00015386578670069208,0.2729682857165667,0.014799159044633399,-9.054404010210625e-05,-0.025426761875597958,0.2190624501574253,0.00423990010266898,0.0,0.0,0.25,0.0,0.0,0.0,0.0,0.0,0.0,0.0,0.0,0.0,0.0,0.0,0.0,0.0,0.0,0.0
158.0,-0.00024405395601177028,-0.00032720659862326746,0.24675832595014918,-4.47227204064505e-05,8.480382416879896e-05,-7.965752379025874e-05,-0.0008626885385871698,0.0005353796452161003,4.905496304789651e-06,-0.0007261340301183734,-0.0006574330345523755,0.00013321611262647495,0.2635565705018257,0.016817463103500876,-2.9937270843549114e-05,-0.028064261768472407,0.2116692781087597,0.004720352195953849,0.0,0.0,0.25,0.0,0.0,0.0,0.0,0.0,0.0,0.0,0.0,0.0,0.0,0.0,0.0,0.0,0.0,0.0
159.0,-0.00023533138024891745,-0.0003290989523630544,0.24675831062559475,-4.2258336531264804e-05,9.165954251936403e-05,-8.011689941963999e-05,-0.0019222825699163996,0.00045498264141684774,4.355228535929695e-06,-0.000595472823264181,-0.001509207338087518,0.0001111002006173313,0.2503805005206603,0.01840761990672156,1.777152750818556e-05,-0.030040321496337053,0.2012469532347038,0.005084735686650341,0.0,0.0,0.25,0.0,0.0,0.0,0.0,0.0,0.0,0.0,0.0,0.0,0.0,0.0,0.0,0.0,0.0,0.0
160.0,-0.00022244116563044836,-0.000330622140871699,0.24675830010896838,-4.038190858258547e-05,0.0001018689917605316,-8.04764997720103e-05,-0.002909528457810151,0.0003699693854086491,3.714940740730221e-06,-0.00045967599886031027,-0.0023035276921017024,8.801730466359254e-05,0.23379674586890362,0.019560853823241003,5.142827148458333e-05,-0.03134844004873992,0.18807879437445896,0.0053323672833500094,0.0,0.0,0.25,0.0,0.0,0.0,0.0,0.0,0.0,0.0,0.0,0.0,0.0,0.0,0.0,0.0,0.0,0.0
161.0,-0.00020575157033052361,-0.0003317658602131796,0.24675829387586018,-3.910116249158232e-05,0.00011513902668385144,-8.073465640805147e-05,-0.0038118010138728643,0.0002822180127390335,3.0670284368088265e-06,-0.00032158630683556727,-0.0030302023933358705,6.445844679259012e-05,0.2142013059309138,0.020277248568483765,7.099349215133302e-05,-0.031995271941678664,0.17247999628010977,0.005464794383226094,0.0,0.0,0.25,0.0,0.0,0.0,0.0,0.0,0.0,0.0,0.0,0.0,0.0,0.0,0.0,0.0,0.0,0.0
162.0,-0.00018567586653521216,-0.00033252766351157516,0.2467582910599955,-3.841204849258469e-05,0.0001311400654796211,-8.089171395534891e-05,-0.004618311790518448,0.00019356364523064423,2.4825610201949965e-06,-0.00018395472344904032,-0.0036805035979696216,4.0897778630710565e-05,0.19202172580633012,0.02056529900833288,7.742866702793396e-05,-0.03199987956946881,0.15479143265136386,0.005485640605448397,0.0,0.0,0.25,0.0,0.0,0.0,0.0,0.0,0.0,0.0,0.0,0.0,0.0,0.0,0.0,0.0,0.0,0.0
163.0,-0.00016266405917374446,-0.0003329126078066773,0.24675829055941487,-3.829938653399149e-05,0.00014951269680921612,-8.094992096056775e-05,-0.0053202054500031395,0.00010576520504039231,2.017509977708355e-06,-4.939175530512276e-05,-0.00424724643410982,1.7784696247550795e-05,0.16770912663524046,0.02044132380334239,7.25264060374687e-05,-0.03139277600681097,0.13537330342794612,0.005400424721276844,0.0,0.0,0.25,0.0,0.0,0.0,0.0,0.0,0.0,0.0,0.0,0.0,0.0,0.0,0.0,0.0,0.0,0.0
164.0,-0.00013719435717601656,-0.0003329327740636692,0.2467582911478336,-3.873769531092353e-05,0.00016987449409533808,-8.091329115057007e-05,-0.005910621936437963,2.047536487095664e-05,1.7103796977579955e-06,7.967615543746375e-05,-0.004724840880195645,-4.4632012811405225e-06,0.1417301824586335,0.019928757082978282,5.870148247005407e-05,-0.03021478766415252,0.11459873087249321,0.0052163572637160234,0.0,0.0,0.25,0.0,0.0,0.0,0.0,0.0,0.0,0.0,0.0,0.0,0.0,0.0,0.0,0.0,0.0,0.0
165.0,-0.00010976454111595173,-0.00033260667601466573,0.24675829158352644,-3.9692179483653667e-05,0.00019182692419863207,-8.078743897954717e-05,-0.0063847248343252,-6.078594456388211e-05,1.5812524264711132e-06,0.00020104451523554173,-0.00510931665880127,-2.5466233884793256e-05,0.11455917182085852,0.019057338754873983,3.876050499348654e-05,-0.028515768576304334,0.0928474056059731,0.004942119075416165,0.0,0.0,0.25,0.0,0.0,0.0,0.0,0.0,0.0,0.0,0.0,0.0,0.0,0.0,0.0,0.0,0.0,0.0
166.0,-8.088336693593276e-05,-0.00033195857474497967,0.2467582907089914,-4.111984807925699e-05,0.00021496223728234082,-8.0579393396283e-05,-0.006739696813314599,-0.00013665413782479725,1.6321678222010113e-06,0.0003127624914355685,-0.005398321802282257,-4.488778250506385e-05,0.08667022604819972,0.01786222402699712,1.5667579742101887e-05,-0.02635319961902118,0.07049937906030401,0.004587626034741595,0.0,0.0,0.25,0.0,0.0,0.0,0.0,0.0,0.0,0.0,0.0,0.0,0.0,0.0,0.0,0.0,0.0,0.0
167.0,-5.106213933883915e-05,-0.00033101771700810466,0.24675828753589052,-4.297073569226933e-05,0.0002388702314864328,-8.029739418385706e-05,-0.0069747035403338485,-0.00020593844788784657,1.8486813598298433e-06,0.0004131581406233943,-0.005591095929343722,-6.243840623909504e-05,0.0585298881950069,0.016383033254068292,-7.678210885829041e-06,-0.023790706620172204,0.04792909288972325,0.004163784186076206,0.0,0.0,0.25,0.0,0.0,0.0,0.0,0.0,0.0,0.0,0.0,0.0,0.0,0.0,0.0,0.0,0.0,0.0
168.0,-2.0806580484949768e-05,-0.00032981751575352836,0.2467582813111883,-4.518919776190585e-05,0.000263144790838341,-7.99506752718884e-05,-0.007090827880820396,-0.0002676361195060078,2.202387388702057e-06,0.0005008569880011502,-0.005688419624861461,-7.787890616660313e-05,0.03059008722801606,0.014662863324431818,-2.8640061550812238e-05,-0.020896531203130855,0.025499728846032528,0.003682239485050595,0.0,0.0,0.25,0.0,0.0,0.0,0.0,0.0,0.0,0.0,0.0,0.0,0.0,0.0,0.0,0.0,0.0,0.0
169.0,9.39089008904561e-06,-0.0003283946915942632,0.2467582715619394,-4.7715251102826276e-05,0.0002873901025232215,-7.954923958742815e-05,-0.007090976605164846,-0.0003209422628281058,2.654153444994623e-06,0.0005747939344225555,-0.005692541634648463,-9.102232448601133e-05,0.0032816213280945426,0.012747281498256853,-4.500495881830907e-05,-0.017741987330635593,0.0035579545981045922,0.003155126341570184,0.0,0.0,0.25,0.0,0.0,0.0,0.0,0.0,0.0,0.0,0.0,0.0,0.0,0.0,0.0,0.0,0.0,0.0
170.0,3.90583593627204e-05,-0.0003267883937385976,0.24675825811771637,-5.048593163794331e-05,0.00031122646893590926,-7.910363001709782e-05,-0.006979762160304869,-0.0003652553937557444,3.1577926766834584e-06,0.0006342186014297295,-0.005607085868439666,-0.00010173488519269032,-0.02299176755405253,0.010683321917709076,-5.510231765121324e-05,-0.014399934982681814,-0.017570867899671078,0.0025948190897037444,0.0,0.0,0.25,0.0,0.0,0.0,0.0,0.0,0.0,0.0,0.0,0.0,0.0,0.0,0.0,0.0,0.0,0.0
171.0,6.775101602280393e-05,-0.0003250393183849177,0.24675824111110775,-5.343664231887637e-05,0.0003342956379863893,-7.862470094390577e-05,-0.006763362356287897,-0.0004001787692340744,3.6639000450106043e-06,0.0006786943481042761,-0.005436940444974626,-0.00010993590041224296,-0.047858658318585205,0.008518503965946436,-5.78760347706854e-05,-0.01094330028761269,-0.03758695446331211,0.002013690419178098,0.0,0.0,0.25,0.0,0.0,0.0,0.0,0.0,0.0,0.0,0.0,0.0,0.0,0.0,0.0,0.0,0.0,0.0
172.0,9.505705748482741e-05,-0.00032318884175573887,0.24675822095802857,-5.65024659078968e-05,0.0003562655880118436,-7.812339476152863e-05,-0.006449361051141446,-0.00042551770131804627,4.123593463519971e-06,0.0007080913049079682,-0.0051881312102443206,-0.00011559668429313306,-0.07098449810414147,0.006299890291086249,-5.290957038864029e-05,-0.007443668823880066,-0.05621980425493264,0.0014238806548063192,0.0,0.0,0.25,0.0,0.0,0.0,0.0,0.0,0.0,0.0,0.0,0.0,0.0,0.0,0.0,0.0,0.0,0.0
173.0,0.0001206028434852651,-0.00032127818376434536,0.2467581983206406,-5.961941925535566e-05,0.0003768347115401969,-7.761052738577205e-05,-0.006046573093126492,-0.000441273102270066,4.491930628653984e-06,0.0007225738674919554,-0.004867682312062408,-0.00011873853362739405,-0.09207538955513628,0.00407320067464767,-4.0406676861843835e-05,-0.003969975816699335,-0.07323130247458322,0.0008370815564635706,0.0,0.0,0.25,0.0,0.0,0.0,0.0,0.0,0.0,0.0,0.0,0.0,0.0,0.0,0.0,0.0,0.0,0.0
174.0,0.00014405724515990554,-0.00031934761698573186,0.2467581740565287,-6.27256280713851e-05,0.0003957353575490767,-7.709658664587907e-05,-0.00556485689694494,-0.0004476315731585544,4.730812868017307e-06,0.000722583176652968,-0.004483466520232836,-0.00011942985062005395,-0.11088108873843953,0.0018819960557726534,-2.1132940001602534e-05,-0.0005873136650897039,-0.08841819447520012,0.00026433802569021463,0.0,0.0,0.25,0.0,0.0,0.0,0.0,0.0,0.0,0.0,0.0,0.0,0.0,0.0,0.0,0.0,0.0,0.0
175.0,0.00016513515347616598,-0.0003174357339136088,0.24675814915828503,-6.576240381650209e-05,0.00041273669913169305,-7.659154681285242e-05,-0.005014918090206299,-0.00044495239967383854,4.811235464792648e-06,0.0007088151785564843,-0.004044048041596535,-0.00011778249796854539,-0.1271971980502025,-0.00023305503044044901,3.6747208333958653e-06,0.0026441262556681886,-0.10161391635749246,-0.0002841292573572835,0.0,0.0,0.25,0.0,0.0,0.0,0.0,0.0,0.0,0.0,0.0,0.0,0.0,0.0,0.0,0.0,0.0,0.0
176.0,0.00018360012523412894,-0.000315578783812326,0.24675812468793704,-6.867520711748494e-05,0.00042764691026049,-7.610470231977763e-05,-0.004408107669802303,-0.0004337518606010172,4.714796098952482e-06,0.0006821949117434175,-0.003558520593777661,-0.00011394748916539237,-0.14086655172859958,-0.0022348175316897058,3.242209630256056e-05,0.005669964174036991,-0.11268977772269544,-0.0007990776791141298,0.0,0.0,0.25,0.0,0.0,0.0,0.0,0.0,0.0,0.0,0.0,0.0,0.0,0.0,0.0,0.0,0.0,0.0
177.0,0.00019926615957160636,-0.00031381008844921934,0.24675810171058432,-7.141448513418546e-05,0.000440314641586871,-7.564452292152853e-05,-0.0037562180569961474,-0.00041468528624224554,4.434425870817545e-06,0.0006438477043384373,-0.0030363434718501192,-0.00010811012727728891,-0.15177980437008465,-0.004090230682975438,6.328607316658292e-05,0.008442385174874,-0.12155550259071982,-0.001272370935645597,0.0,0.0,0.25,0.0,0.0,0.0,0.0,0.0,0.0,0.0,0.0,0.0,0.0,0.0,0.0,0.0,0.0,0.0
178.0,0.0002119986115326632,-0.0003121595441293761,0.24675808123136153,-7.393637324722618e-05,0.00045062980223860825,-7.521853230302952e-05,-0.003071280337975258,-0.00038852732592421324,3.974357708527237e-06,0.000595067986635613,-0.0024871782704036518,-0.00010048471303926677,-0.15987524495408753,-0.005770743062829655,9.434808521695323e-05,0.01092072900106649,-0.1281591443748451,-0.0016970801477737582,0.0,0.0,0.25,0.0,0.0,0.0,0.0,0.0,0.0,0.0,0.0,0.0,0.0,0.0,0.0,0.0,0.0,0.0
179.0,0.00022171426286303903,-0.0003106532152804539,0.2467580641392958,-7.620325458589795e-05,0.0004585236594954107,-7.483321123634505e-05,-0.0023653658269997095,-0.0003561508956222332,3.349392095306344e-06,0.0005372864314641329,-0.0019207288122059989,-9.130894769506389e-05,-0.16513787015053635,-0.007252638737726724,0.00012372384672341475,0.01307191375334674,-0.13248640009812412,-0.0020675569211720114,0.0,0.0,0.25,0.0,0.0,0.0,0.0,0.0,0.0,0.0,0.0,0.0,0.0,0.0,0.0,0.0,0.0,0.0
180.0,0.0002283805823180327,-0.0003093130229410176,0.24675805116098826,-7.818417379224665e-05,0.00046396828442193033,-7.449392615183003e-05,-0.0016503948963602622,-0.00031850527893252184,2.5835578016027167e-06,0.0004720361282689687,-0.0013465866869776418,-8.083815749230247e-05,-0.16759776097264384,-0.00851725359044145,0.0001496815702875746,0.014870694138813432,-0.13455935761066756,-0.002379478044698842,0.0,0.0,0.25,0.0,0.0,0.0,0.0,0.0,0.0,0.0,0.0,0.0,0.0,0.0,0.0,0.0,0.0,0.0
181.0,0.00023201421950926111,-0.0003081565293569839,0.24675804282620745,-7.985510446004088e-05,0.0004669753749170173,-7.420488306734742e-05,-0.0009379557859069062,-0.0002765938475577642,1.7082940919073255e-06,0.0004009184776959527,-0.0007740846233398004,-6.933946510523172e-05,-0.167327816021788,-0.009551083094949491,0.00017074224061981909,0.016299757999336643,-0.134434717305687,-0.0026298621424138626,0.0,0.0,0.25,0.0,0.0,0.0,0.0,0.0,0.0,0.0,0.0,0.0,0.0,0.0,0.0,0.0,0.0,0.0
182.0,0.00023267878631146792,-0.0003071968181129961,0.24675803944665853,-8.119907230286224e-05,0.00046759450207059733,-7.396910662714675e-05,-0.00023913584010006294,-0.000231451851726633,7.602997590293813e-07,0.0003255694628084097,-0.0002121597077936491,-5.708602863158452e-05,-0.1644409025521194,-0.01034578483724802,0.00018575715460328717,0.017349667670802937,-0.13220153663711726,-0.002817059198187462,0.0,0.0,0.25,0.0,0.0,0.0,0.0,0.0,0.0,0.0,0.0,0.0,0.0,0.0,0.0,0.0,0.0,0.0
183.0,0.00023048198915477422,-0.00030644246725998253,0.24675804110827995,-8.220613884290003e-05,0.00046591082745243756,-7.378844315216391e-05,0.0004356326721343182,-0.00018412470727504425,-2.2079697431952386e-07,0.00024762691215093885,0.0003307717689985445,-4.435146142884556e-05,-0.159086493282793,-0.01089808095495267,0.0001939597248270076,0.018018655251480938,-0.12797855153239918,-0.0029407144368208543,0.0,0.0,0.25,0.0,0.0,0.0,0.0,0.0,0.0,0.0,0.0,0.0,0.0,0.0,0.0,0.0,0.0,0.0
184.0,0.000225572182949489,-0.00030589761136289283,0.24675804767662696,-8.287325261591507e-05,0.0004620423508575221,-7.36635864841895e-05,0.0010767103142891236,-0.00013564717532469573,-1.1947948398740787e-06,0.00016869932005742774,0.0008469263117125687,-3.140453625110599e-05,-0.1514468622517373,-0.011209567350207787,0.00019499035952348154,0.018312283069148744,-0.1219111335092008,-0.0030017085542138775,0.0,0.0,0.25,0.0,0.0,0.0,0.0,0.0,0.0,0.0,0.0,0.0,0.0,0.0,0.0,0.0,0.0,0.0
185.0,0.00021813442387907914,-0.0003055620867393526,0.24675805881412605,-8.32039771651546e-05,0.00045613674811701175,-7.359412469514919e-05,0.001675370306596234,-8.702379354913378e-05,-2.123159559237984e-06,9.033673226308437e-05,0.0013292508070473935,-1.850426532954714e-05,-0.14173291700603402,-0.011286437996947814,0.0001888949662163332,0.01824298251593891,-0.11416794490274161,-0.003002076726210767,0.0,0.0,0.25,0.0,0.0,0.0,0.0,0.0,0.0,0.0,0.0,0.0,0.0,0.0,0.0,0.0,0.0,0.0
186.0,0.00020838610289241209,-0.00030543165295703485,0.24675807400740213,-8.320810678342637e-05,0.00044836786739933636,-7.357860570196517e-05,0.0022238992501140017,-3.9210875939313066e-05,-2.971022808901738e-06,1.4004141433715918e-05,0.0017715047174067273,-5.895434669584722e-06,-0.13017974705231117,-0.011139133896818256,0.00017609918326225388,0.017829485957748727,-0.10493735706914699,-0.0029449091796733672,0.0,0.0,0.25,0.0,0.0,0.0,0.0,0.0,0.0,0.0,0.0,0.0,0.0,0.0,0.0,0.0,0.0,0.0
187.0,0.00019657224522198134,-0.0003054982824098419,0.2467580926023913,-8.29011826713685e-05,0.000438931950962152,-7.361461929865308e-05,0.002715677929255871,6.899648160449683e-06,-3.708839343921462e-06,-5.894223092016232e-05,0.00216832618497392,6.195343593615065e-06,-0.11704196975989113,-0.010781927225492562,0.0001573617452223064,0.017096167618132804,-0.09442369774795614,-0.002834236372387482,0.0,0.0,0.25,0.0,0.0,0.0,0.0,0.0,0.0,0.0,0.0,0.0,0.0,0.0,0.0,0.0,0.0,0.0
188.0,0.00018296056296355148,-0.0003057505089836125,0.2467581138446858,-8.230392328687862e-05,0.0004280436547293926,-7.369889317353815e-05,0.0031452417168664824,5.04943340823011e-05,-4.31362960697112e-06,-0.00012727546112801226,0.0025152816335187347,1.756301193782575e-05,-0.10258895485431714,-0.010232451945520934,0.00013371137836396663,0.01607231018671208,-0.08284339396106863,-0.0026749019970596015,0.0,0.0,0.25,0.0,0.0,0.0,0.0,0.0,0.0,0.0,0.0,0.0,0.0,0.0,0.0,0.0,0.0,0.0
189.0,0.0001678363482749616,-0.00030617382603381006,0.24675813692242007,-8.144158373861792e-05,0.0004159319352501932,-7.382740015137124e-05,0.0035083204450964524,9.085009023923771e-05,-4.769765404410277e-06,-0.00018991502702071547,0.002808898734899935,2.8026847541299098e-05,-0.08710000731314876,-0.009511192641339313,0.00010637226819158293,0.014791314415791842,-0.07042107593230829,-0.0024724270994429015,0.0,0.0,0.25,0.0,0.0,0.0,0.0,0.0,0.0,0.0,0.0,0.0,0.0,0.0,0.0,0.0,0.0,0.0
190.0,0.00015149729369429678,-0.00030675112350532654,0.24675816100907544,-8.03432595832957e-05,0.0004028358755317623,-7.399547402703671e-05,0.003801857933119443,0.00012734369596862456,-5.069286676804405e-06,-0.0002459403309652048,0.0030466828780991253,3.74326227075306e-05,-0.07085958595109476,-0.00864094355985698,7.668343131181158e-05,0.013289869156632408,-0.057385705585310996,-0.002232868585846817,0.0,0.0,0.25,0.0,0.0,0.0,0.0,0.0,0.0,0.0,0.0,0.0,0.0,0.0,0.0,0.0,0.0,0.0
191.0,0.000134248323826372,-0.00030746315371006644,0.2467581853037722,-7.904115081579397e-05,0.0003890005173398438,-7.419793122564778e-05,0.004024011674489442,0.00015945890137448028,-5.211766198503673e-06,-0.0002946005580466368,0.0032271175366079467,4.5654140640019616e-05,-0.054152631345019644,-0.00764624982410468,4.601727050544893e-05,0.011607099162790274,-0.043966790287719104,-0.001962675298500104,0.0,0.0,0.25,0.0,0.0,0.0,0.0,0.0,0.0,0.0,0.0,0.0,0.0,0.0,0.0,0.0,0.0,0.0
192.0,0.00011639651910287244,-0.0003082890152921396,0.24675820906696097,-7.756980176568348e-05,0.0003746727661704432,-7.442919569545104e-05,0.004174133478403551,0.00018679109197560116,-5.203764614768078e-06,-0.0003353208567095805,0.0033496491713342247,5.259415456032692e-05,-0.03726007210235744,-0.006552842540113044,1.5702225346825902e-05,0.009783707569468284,-0.030390738741278844,-0.0016685446686274974,0.0,0.0,0.25,0.0,0.0,0.0,0.0,0.0,0.0,0.0,0.0,0.0,0.0,0.0,0.0,0.0,0.0,0.0
193.0,9.824620765041614e-05,-0.000309206645047369,0.246758231649852,-7.596533241900244e-05,0.0003600974304457439,-7.468342448263977e-05,0.004252732126552834,0.00020904954905297946,-5.05793928308105e-06,-0.0003677048977400152,0.003414657527563946,5.818468986203192e-05,-0.020454572931973183,-0.005387079054766912,-1.3046202052824516e-05,0.00786112926508812,-0.016877411367433467,-0.0013572827286975953,0.0,0.0,0.25,0.0,0.0,0.0,0.0,0.0,0.0,0.0,0.0,0.0,0.0,0.0,0.0,0.0,0.0,0.0
194.0,8.009429568160242e-05,-0.00031019330764397085,0.24675825251642255,-7.426467607917632e-05,0.0003455134521257946,-7.495463162431503e-05,0.004261419347372657,0.00022605738168951476,-4.7918860111475e-06,-0.00039153393203155996,0.0034234123830615302,6.238679924485409e-05,-0.003996581657031044,-0.004175398964503377,-3.918260661097172e-05,0.005880710427171899,-0.00363691231364004,-0.0010356699902081643,0.0,0.0,0.25,0.0,0.0,0.0,0.0,0.0,0.0,0.0,0.0,0.0,0.0,0.0,0.0,0.0,0.0,0.0
195.0,6.222590020759493e-05,-0.00031122607382553786,0.2467582712573733,-7.250483752553143e-05,0.00033115038088229716,-7.52368081813458e-05,0.004202840619661193,0.00023774924788129821,-4.426802455213312e-06,-0.00040676252718464746,0.003378017977767145,6.518978948329568e-05,0.011869274655291348,-0.0029438056438837444,-6.187456611311346e-05,0.0038829283243670626,0.009133335578033749,-0.00071033538499732,0.0,0.0,0.25,0.0,0.0,0.0,0.0,0.0,0.0,0.0,0.0,0.0,0.0,0.0,0.0,0.0,0.0,0.0
196.0,4.491034068171702e-05,-0.0003122822783591763,0.24675828759592575,-7.072218477675068e-05,0.0003172251371623648,-7.552403640919356e-05,0.004080592495611889,0.0002441670191548663,-3.986065533160877e-06,-0.0004135112167931947,0.0032813465019456444,6.6609965624962e-05,0.026917401747653644,-0.0017173820840147012,-8.052984542036029e-05,0.0019066641175805859,0.02125119772112482,-0.00038764013939822904,0.0,0.0,0.25,0.0,0.0,0.0,0.0,0.0,0.0,0.0,0.0,0.0,0.0,0.0,0.0,0.0,0.0,0.0
197.0,2.839753817838441e-05,-0.00031333994984497924,0.2467583013858534,-6.895178634727397e-05,0.00030393910438882173,-7.581059635781165e-05,0.0038991282777802766,0.00024545357534594414,-3.4938129671321545e-06,-0.0004120563435514787,0.0031369621377879487,6.668894401454364e-05,0.04094402355878839,-0.0005198487299118316,-9.48075641310368e-05,-1.1460144754458666e-05,0.03255208807346107,-7.357311356919518e-05,0.0,0.0,0.25,0.0,0.0,0.0,0.0,0.0,0.0,0.0,0.0,0.0,0.0,0.0,0.0,0.0,0.0,0.0
198.0,1.29148625155475e-05,-0.00031437820540520893,0.24675831260255476,-6.722680449556913e-05,0.00029147558189429086,-7.609106333791475e-05,0.0036636539944412106,0.00024184494319852643,-2.9736115830868704e-06,-0.0004028174174609767,0.0029490372386334843,6.549158967547127e-05,0.05376951417470137,0.0006268301893754646,-0.00010461396408866908,-0.001837670817945875,0.04289086091518703,0.00022634119648103003,0.0,0.0,0.25,0.0,0.0,0.0,0.0,0.0,0.0,0.0,0.0,0.0,0.0,0.0,0.0,0.0,0.0,0.0
199.0,-1.3355410661467517e-06,-0.0003153776043494677,0.24675832132833925,-6.557795340309467e-05,0.0002799976254013006,-7.636039505747887e-05,0.003380016692832173,0.00023366101396532122,-2.4472831159853857e-06,-0.00038634234296348836,0.002722262289969188,6.310363636127458e-05,0.06524025776045458,0.001702786605835011,-0.0001100842878002456,-0.0035415505001219687,0.05214331906975085,0.0005071211206175199,0.0,0.0,0.25,0.0,0.0,0.0,0.0,0.0,0.0,0.0,0.0,0.0,0.0,0.0,0.0,0.0,0.0,0.0
200.0,-1.4178922676514347e-05,-0.0003163204559448306,0.24675832773332484,-6.403302962112738e-05,0.00026964629206754513,-7.661400733811277e-05,0.0030545871101257983,0.00022129509108769534,-1.9339430567566166e-06,-0.00036329089344534977,0.002461751327467535,5.962904914272224e-05,0.0752300260381777,0.002690530901219993,-0.00011155299315634111,-0.0050964585319898175,0.06020733027908077,0.0007643921729280134,0.0,0.0,0.25,0.0,0.0,0.0,0.0,0.0,0.0,0.0,0.0,0.0,0.0,0.0,0.0,0.0,0.0,0.0
201.0,-2.5469581994238036e-05,-0.00031719107762039116,0.24675833205351097,-6.261652036207511e-05,0.0002605393029107683,-7.684783773099958e-05,0.0026941387883712086,0.00020520252927753625,-1.4492907107275884e-06,-0.0003344168280682138,0.002172944490324432,5.518718986454614e-05,0.08364087086739372,0.0035751739200022884,-0.00010951505314325894,-0.006479860158056531,0.0670035500463493,0.000994437023789277,0.0,0.0,0.25,0.0,0.0,0.0,0.0,0.0,0.0,0.0,0.0,0.0,0.0,0.0,0.0,0.0,0.0,0.0
202.0,-3.5092000409697e-05,-0.00031797600100773245,0.24675833456760332,-6.134929353129416e-05,0.0002527701251892962,-7.705839641568781e-05,0.00230572567333413,0.00018588873099788434,-1.0051703381351173e-06,-0.00030054905425631407,0.0018615093642505647,4.990984532602274e-05,0.09040353719548551,0.004344587384850537,-0.00010458140471504698,-0.007673562239524868,0.07247575560430795,0.001194231061970238,0.0,0.0,0.25,0.0,0.0,0.0,0.0,0.0,0.0,0.0,0.0,0.0,0.0,0.0,0.0,0.0,0.0,0.0
203.0,-4.296145417834298e-05,-0.00031866412444070944,0.2467583355741275,-6.024837158111817e-05,0.00024640747390996555,-7.724280419299993e-05,0.0018965601798600405,0.00016389676563029787,-6.094052010809005e-07,-0.0002625722395320139,0.001533242719245476,4.39381767431556e-05,0.09547740896911203,0.004989502651901072,-9.743171572190726e-05,-0.008663855265582934,0.07659080166160546,0.0013614637562225393,0.0,0.0,0.25,0.0,0.0,0.0,0.0,0.0,0.0,0.0,0.0,0.0,0.0,0.0,0.0,0.0,0.0,0.0
204.0,-4.902411951092406e-05,-0.0003192468115640674,0.24675833537019384,-5.932678964101597e-05,0.00024149522161656144,-7.739881740916956e-05,0.001473893620212504,0.00013979487080582824,-2.658896273677771e-07,-0.00022140726901401963,0.0011939741746678527,3.741964705217901e-05,0.09885000743197331,0.005503548940890044,-8.876754284127392e-05,-0.009441563199992054,0.0793382141419249,0.0014945462331136404,0.0,0.0,0.25,0.0,0.0,0.0,0.0,0.0,0.0,0.0,0.0,0.0,0.0,0.0,0.0,0.0,0.0,0.0
205.0,-5.325668825812241e-05,-0.000319717936850779,0.24675833423307608,-5.859353665126597e-05,0.00023805270315527488,-7.752484007235119e-05,0.0010449007792998272,0.00011416408482872503,2.509026419470412e-08,-0.00017799193019278332,0.0008494732303184092,3.050498001186276e-05,0.1005360674924808,0.005883233291754558,-7.926867830813327e-05,-0.010002004392011458,0.08072944319087971,0.0015926056706176575,0.0,0.0,0.25,0.0,0.0,0.0,0.0,0.0,0.0,0.0,0.0,0.0,0.0,0.0,0.0,0.0,0.0,0.0
206.0,-5.5665519610549795e-05,-0.00032007387973464335,0.24675833240546688,-5.805357677224347e-05,0.00023607539290926855,-7.761992341837049e-05,0.00061657028461253,8.758624427611778e-05,2.6634804186850723e-07,-0.0001332621851264249,0.0005053609897155746,2.3345201933589835e-05,0.10057622345109882,0.006127865517078128,-6.955505961629356e-05,-0.01034486834539969,0.08079680122515592,0.0016554672671150405,0.0,0.0,0.25,0.0,0.0,0.0,0.0,0.0,0.0,0.0,0.0,0.0,0.0,0.0,0.0,0.0,0.0,0.0
207.0,-5.6285359684507175e-05,-0.00032031347006496175,0.24675833008499018,-5.7707946827927864e-05,0.00023553593055788334,-7.76837535830202e-05,0.00019560226212606504,6.063256221239477e-05,4.6314958731260084e-07,-8.813436263040916e-05,0.00016702777308957623,1.6088813273132275e-05,0.09903534026910236,0.006239432324025383,-6.0156081664544394e-05,-0.010474014550103126,0.07959211569146,0.0016836246851555951,0.0,0.0,0.25,0.0,0.0,0.0,0.0,0.0,0.0,0.0,0.0,0.0,0.0,0.0,0.0,0.0,0.0,0.0
208.0,-5.517766621944716e-05,-0.00032043788831985514,0.2467583274182102,-5.755392435777969e-05,0.000236385463520205,-7.771662801164659e-05,-0.00021168540434775095,3.385298056149072e-05,6.224802391253109e-07,-4.3488570142983024e-05,-0.00016044232440515165,8.87913330086442e-06,0.09600053068965488,0.0062224255583811505,-5.148854634771219e-05,-0.010397200815463983,0.07718512945582258,0.0016781999907434417,0.0,0.0,0.25,0.0,0.0,0.0,0.0,0.0,0.0,0.0,0.0,0.0,0.0,0.0,0.0,0.0,0.0,0.0
209.0,-5.242858048497048e-05,-0.0003204505248051598,0.24675832449909246,-5.7585259650085244e-05,0.00023855527382704323,-7.771942159515486e-05,-0.0005994410804358972,7.766465616767463e-06,7.522806059091272e-07,-1.5358760031700506e-07,-0.0004723390263327983,1.8518566611876833e-06,0.0915789018537861,0.006083630168178573,-4.384385271960245e-05,-0.010125749582636564,0.07366168433519447,0.0016408942138105905,0.0,0.0,0.25,0.0,0.0,0.0,0.0,0.0,0.0,0.0,0.0,0.0,0.0,0.0,0.0,0.0,0.0,0.0
210.0,-4.8146592224088376e-05,-0.00032035680258012356,0.24675832137157336,-5.779246428598712e-05,0.00024195865095209585,-7.769354347868541e-05,-0.0009623527230313532,-1.714761095806702e-05,8.607025811396936e-07,4.1106535219813316e-05,-0.000764384877817699,-4.867144135390522e-06,0.08589507756730672,0.0058318779893831345,-3.738441237007249e-05,-0.009674161523195515,0.06912172520318535,0.0015739297452333051,0.0,0.0,0.25,0.0,0.0,0.0,0.0,0.0,0.0,0.0,0.0,0.0,0.0,0.0,0.0,0.0,0.0,0.0
211.0,-4.2459946577958406e-05,-0.00032016396939310945,0.24675831803567932,-5.816314790141952e-05,0.00024649297267530674,-7.764088578803317e-05,-0.0012957098292200456,-4.04568913575242e-05,9.554314969927846e-07,7.960399985651201e-05,-0.0010327850800600639,-1.1163741345897166e-05,0.07908854406290067,0.005477773818378669,-3.21487063867949e-05,-0.009059686341281395,0.06367716335143468,0.0014799858608437356,0.0,0.0,0.25,0.0,0.0,0.0,0.0,0.0,0.0,0.0,0.0,0.0,0.0,0.0,0.0,0.0,0.0,0.0
212.0,-3.551384393770778e-05,-0.00031988086419073225,0.24675831445644014,-5.868239440763938e-05,0.00025204195176247845,-7.756376546298927e-05,-0.0015954534727637567,-6.178216572217112e-05,1.0431123621971695e-06,0.00011473676578920187,-0.0012742677462203428,-1.6937176217414664e-05,0.07131086797082838,0.005033400455635453,-2.806391312405379e-05,-0.008301861083677317,0.05744963837902202,0.0013621287233536992,0.0,0.0,0.25,0.0,0.0,0.0,0.0,0.0,0.0,0.0,0.0,0.0,0.0,0.0,0.0,0.0,0.0,0.0
213.0,-2.7467484979517564e-05,-0.0003195176640410612,0.24675831057473677,-5.933316849840732e-05,0.0002584780076291948,-7.746486061032986e-05,-0.0018582141163912232,-8.080216486172417e-05,1.1289084207594995e-06,0.00014599595505595086,-0.001486114334994424,-2.2101366928768837e-05,0.06272283528074539,0.004512009484714068,-2.4964653530086066e-05,-0.007422026426584721,0.05056821783559571,0.0012237372582637786,0.0,0.0,0.25,0.0,0.0,0.0,0.0,0.0,0.0,0.0,0.0,0.0,0.0,0.0,0.0,0.0,0.0,0.0
214.0,-1.8491013423225523e-05,-0.00031908561735849515,0.24675830631915743,-6.00967431855284e-05,0.00026566471989906634,-7.734714272134671e-05,-0.0020813370925715086,-9.725698419894255e-05,1.2162095778283938e-06,0.00017297111257882238,-0.0016661801816923191,-2.6585888257967096e-05,0.05349155937682948,0.00392770449599363,-2.2616138306878643e-05,-0.006442831355104107,0.04316707318924245,0.0010684263284913788,0.0,0.0,0.25,0.0,0.0,0.0,0.0,0.0,0.0,0.0,0.0,0.0,0.0,0.0,0.0,0.0,0.0,0.0
215.0,-8.762408618059157e-06,-0.0003185967693351371,0.24675830161795417,-6.095313909540681e-05,0.00027345932283538965,-7.721380623477581e-05,-0.0022628958434127546,-0.00011095013945363871,1.3064973035448183e-06,0.00019535332379482033,-0.0018129052046025101,-3.0336616999660594e-05,0.04378760480034864,0.003295123282840556,-2.0739865460826217e-05,-0.005387736391705365,0.03538316946493351,0.0008999686430848854,0.0,0.0,0.25,0.0,0.0,0.0,0.0,0.0,0.0,0.0,0.0,0.0,0.0,0.0,0.0,0.0,0.0,0.0
216.0,1.5356212565777762e-06,-0.00031806368531556297,0.2467582964102483,-6.188156652441367e-05,0.0002817151993743641,-7.706819684636271e-05,-0.002401693198991174,-0.00012174928114800202,1.3993621409008028e-06,0.00021293623293968666,-0.001925315014678404,-3.3316043233011894e-05,0.033782171289424116,0.002629125239036078,-1.9040006310893516e-05,-0.0042805250777170996,0.02735400414777315,0.0007222168263301208,0.0,0.0,0.25,0.0,0.0,0.0,0.0,0.0,0.0,0.0,0.0,0.0,0.0,0.0,0.0,0.0,0.0,0.0
217.0,1.2218696608001521e-05,-0.00031749917763270835,0.2467582906557535,-6.286086160719417e-05,0.0002902843360584086,-7.691374000772423e-05,-0.0024972511501752974,-0.00012958561975864568,1.4926605231821963e-06,0.00022561504418669285,-0.0020030127971400018,-3.550325357763383e-05,0.023644379925081557,0.0019444897816058146,-1.7228723639544047e-05,-0.0031448327852434794,0.019215428717052015,0.0005390270432207841,0.0,0.0,0.25,0.0,0.0,0.0,0.0,0.0,0.0,0.0,0.0,0.0,0.0,0.0,0.0,0.0,0.0,0.0
218.0,2.3103728407404708e-05,-0.0003169160410726096,0.2467582843424322,-6.386990851381227e-05,0.00029901970178196824,-7.675387096660049e-05,-0.002549789734565386,-0.00013445213587795325,1.5827897510918735e-06,0.00023338362314750792,-0.002046162462691393,-3.6893598464586773e-05,0.013538699943079904,0.0012556311256558285,-1.5048871854516563e-05,-0.0020037011572410337,0.01109958352678772,0.00035418552438892613,0.0,0.0,0.25,0.0,0.0,0.0,0.0,0.0,0.0,0.0,0.0,0.0,0.0,0.0,0.0,0.0,0.0,0.0
219.0,3.401174202687342e-05,-0.0003163268017190475,0.24675827749167897,-6.488804024927282e-05,0.00030777751613657203,-7.659196764750531e-05,-0.0025601958005292053,-0.00013640066974912355,1.6650540543860485e-06,0.00023632984745163477,-0.0020554636822068695,-3.7498061073353615e-05,0.0036225510257579903,0.0005763341614789854,-1.2292815248170785e-05,-0.0008791655645397677,0.003132973734243182,0.0001713392574224464,0.0,0.0,0.25,0.0,0.0,0.0,0.0,0.0,0.0,0.0,0.0,0.0,0.0,0.0,0.0,0.0,0.0,0.0
220.0,4.4770524064748364e-05,-0.0003157434834406647,0.24675827016081545,-6.589541141379254e-05,0.000316419376377458,-7.643128757313177e-05,-0.0025299825428285526,-0.00013553800174191015,1.7340908856875618e-06,0.00023462938180680203,-0.00203211952068561,-3.734235082310943e-05,-0.005955888254901113,-8.048445605551628e-05,-8.816442831036077e-06,0.00020811804408587522,-0.00456528933919394,-6.067988034346675e-06,0.0,0.0,0.25,0.0,0.0,0.0,0.0,0.0,0.0,0.0,0.0,0.0,0.0,0.0,0.0,0.0,0.0,0.0
221.0,5.521705767089431e-05,-0.000315177395718779,0.24675826244286508,-6.687333715952343e-05,0.0003248142150142224,-7.6274909887086e-05,-0.002461240812688446,-0.0001320210495419314,1.7843250335210604e-06,0.00022853807479818305,-0.0019777974730304823,-3.646574903781607e-05,-0.015059639631612198,-0.0007029865845786104,-4.547831301648155e-06,0.001239201612532291,-0.011885060587674648,-0.00017485325615695078,0.0,0.0,0.25,0.0,0.0,0.0,0.0,0.0,0.0,0.0,0.0,0.0,0.0,0.0,0.0,0.0,0.0,0.0
222.0,6.519971650908883e-05,-0.0003146389459371639,0.24675825446376087,-6.7804593503534e-05,0.0003328400645634248,-7.612568343730022e-05,-0.0023565832944083404,-0.00012605131890511674,1.8104187239630044e-06,0.00021838319152359099,-0.001894584775050866,-3.491973851701795e-05,-0.023564630456017772,-0.0012805915381937886,5.096138996808058e-07,0.0021971246225363067,-0.018726530147880692,-0.00033214471972582205,0.0,0.0,0.25,0.0,0.0,0.0,0.0,0.0,0.0,0.0,0.0,0.0,0.0,0.0,0.0,0.0,0.0,0.0
223.0,7.458019255387656e-05,-0.00031413747859919633,0.2467582463772836,-6.867367516373022e-05,0.0003403856088993549,-7.598618166827949e-05,-0.002219082709152122,-0.0001178687527162588,1.8076884055058547e-06,0.00020455370791693197,-0.0017849389175689748,-3.27664521373577e-05,-0.03136112846005292,-0.0018041217378939108,6.2793495787238695e-06,0.0030671419312008467,-0.025001375827058882,-0.0004754239734542928,0.0,0.0,0.25,0.0,0.0,0.0,0.0,0.0,0.0,0.0,0.0,0.0,0.0,0.0,0.0,0.0,0.0,0.0
224.0,8.323513799568332e-05,-0.00031368114332447616,0.24675823835816507,-6.946700806217505e-05,0.000347351506099021,-7.585866497446327e-05,-0.0020522052541305335,-0.00010774512778714985,1.772463075242259e-06,0.00018748989932700755,-0.0016516343294332894,-3.007697820068446e-05,-0.03835489420519734,-0.002265913849445132,1.261870726122633e-05,0.0038368979809420205,-0.030633689583128,-0.000602559742409922,0.0,0.0,0.25,0.0,0.0,0.0,0.0,0.0,0.0,0.0,0.0,0.0,0.0,0.0,0.0,0.0,0.0,0.0
225.0,9.105750690193527e-05,-0.0003132767927872874,0.24675823059386662,-7.017311468658318e-05,0.00035365147032642024,-7.574505090554938e-05,-0.0018597405120950174,-9.597715039728444e-05,1.7023644241197337e-06,0.00016767245774023664,-0.001497706216676208,-2.692956197151816e-05,-0.044468044362649915,-0.0026598949191760893,1.932995192707464e-05,0.004496546698621069,-0.03556067259463739,-0.0007118326301764591,0.0,0.0,0.25,0.0,0.0,0.0,0.0,0.0,0.0,0.0,0.0,0.0,0.0,0.0,0.0,0.0,0.0,0.0
226.0,9.795758746263337e-05,-0.00031292991115975755,0.24675822327560812,-7.078273145224017e-05,0.00035921310628231925,-7.564689253336548e-05,-0.0016457290723091774,-8.287940013793618e-05,1.5964953246211274e-06,0.00014561136920363877,-0.001326392550306431,-2.3407743672436103e-05,-0.04963962378194314,-0.00298162372196275,2.6174415143204332e-05,0.005038817489911356,-0.03973309727604375,-0.0008019507260748451,0.0,0.0,0.25,0.0,0.0,0.0,0.0,0.0,0.0,0.0,0.0,0.0,0.0,0.0,0.0,0.0,0.0,0.0
227.0,0.00010386372098254621,-0.0003126445729537328,0.2467582165892209,-7.128887820965391e-05,0.0003639784920060499,-7.556536500298037e-05,-0.001414389090671544,-6.877726734039049e-05,1.4555298078935593e-06,0.00012183477583870819,-0.0011410751848428945,-1.959847312006487e-05,-0.05382588896006515,-0.0032282982016099996,3.28886090404876e-05,0.00545902875740731,-0.043115538287081596,-0.0008720560870207042,0.0,0.0,0.25,0.0,0.0,0.0,0.0,0.0,0.0,0.0,0.0,0.0,0.0,0.0,0.0,0.0,0.0,0.0
228.0,0.00010872270874133929,-0.0003124234316141592,0.24675821070638784,-7.1686880899846e-05,0.00036790451191376095,-7.55012602331368e-05,-0.0011700429844306813,-5.400002246982274e-05,1.2817042422692356e-06,9.687803572547012e-05,-0.0009452210644361429,-1.559024020338985e-05,-0.05700030995105308,-0.0033987305007326706,3.9201182593215504e-05,0.005755051309895586,-0.045686378102449327,-0.0009217223022841695,0.0,0.0,0.25,0.0,0.0,0.0,0.0,0.0,0.0,0.0,0.0,0.0,0.0,0.0,0.0,0.0,0.0,0.0
229.0,0.0001124999128125716,-0.00031226773661686193,0.24675820577676275,-7.197434924920482e-05,0.00037096294372324345,-7.54549894441314e-05,-0.0009170454072150131,-3.8874146606713004e-05,1.0787155315647711e-06,7.127317932110738e-05,-0.000742324434243259,-1.1471258573232994e-05,-0.05915330189677666,-0.0034932916355264556,4.4849610289196136e-05,0.005927224871750316,-0.047437596002564766,-0.0009509435334258622,0.0,0.0,0.25,0.0,0.0,0.0,0.0,0.0,0.0,0.0,0.0,0.0,0.0,0.0,0.0,0.0,0.0,0.0
230.0,0.00011517906138338923,-0.00031217737737668726,0.24675820192139308,-7.215111210422966e-05,0.00037314030874853964,-7.542659316445656e-05,-0.0006597135843734044,-2.3717040810259845e-05,8.515374587048497e-07,4.5538943441879006e-05,-0.0005358509227602685,-7.32773729495958e-06,-0.06029170115969638,-0.003513828362468734,4.95955981447451e-05,0.0059782316347253865,-0.04837435237566948,-0.0009601155921658103,0.0,0.0,0.25,0.0,0.0,0.0,0.0,0.0,0.0,0.0,0.0,0.0,0.0,0.0,0.0,0.0,0.0,0.0
231.0,0.00011676177344607547,-0.00031215095177937203,0.24675819922775175,-7.221911373017572e-05,0.0003744374962498706,-7.541575810376266e-05,-0.00040226100855911794,-8.831219081766221e-06,6.061705425558283e-07,2.0171543691086144e-05,-0.0003291842973631036,-3.242271905596833e-06,-0.060438004451706606,-0.0034635552026391135,5.323834224007e-05,0.005912931411606891,-0.04851438294941312,-0.000950009771520947,0.0,0.0,0.25,0.0,0.0,0.0,0.0,0.0,0.0,0.0,0.0,0.0,0.0,0.0,0.0,0.0,0.0,0.0
232.0,0.00011726682144215132,-0.00031218585682342697,0.24675819774658542,-7.218227492173152e-05,0.00037486917775554895,-7.542184028757392e-05,-0.00014873540291796293,5.500924841909523e-06,3.493437736366559e-07,-4.3636759147151795e-06,-0.00012557662178767605,7.076175805001025e-07,-0.05962939234162667,-0.003346924930347448,5.562496708256884e-05,0.005738163447258447,-0.047887219965362555,-0.0009217402764814427,0.0,0.0,0.25,0.0,0.0,0.0,0.0,0.0,0.0,0.0,0.0,0.0,0.0,0.0,0.0,0.0,0.0,0.0
233.0,0.00011672915391344105,-0.0003122783984997152,0.24675819749065306,-7.204632329608208e-05,0.0003744630278812973,-7.544389362745323e-05,9.703824388683834e-05,1.9021702184879384e-05,8.818825799277476e-08,-2.7639600954700412e-05,7.189753778040049e-05,4.450778534946504e-06,-0.057916561057549075,-0.0031694810931727174,5.665769016679217e-05,0.005462520315290486,-0.04653325934789378,-0.0008767262068233168,0.0,0.0,0.25,0.0,0.0,0.0,0.0,0.0,0.0,0.0,0.0,0.0,0.0,0.0,0.0,0.0,0.0,0.0
234.0,0.00011519870301324829,-0.00031242391784325543,0.2467581984353278,-7.181859745992002e-05,0.0003732587725264555,-7.54807031427435e-05,0.0003315088782258904,3.150200689788223e-05,-1.7009687307742194e-07,-4.927362159924322e-05,0.00026038230032856077,7.923528960978375e-06,-0.05536238855749261,-0.002937696309118545,5.6297489610961454e-05,0.005096099578218093,-0.04450269458118698,-0.0008166491242848576,0.0,0.0,0.25,0.0,0.0,0.0,0.0,0.0,0.0,0.0,0.0,0.0,0.0,0.0,0.0,0.0,0.0,0.0
235.0,0.00011273900420283042,-0.0003126169298812913,0.24675820052091824,-7.150783004586938e-05,0.000371307085349351,-7.553082188318913e-05,0.0005514442431146733,4.2744444689964366e-05,-4.1856685572021305e-07,-6.893275888603112e-05,0.00043727658794207004,1.1070558530738843e-05,-0.05204046240937721,-0.0026588001837950298,5.4564278723377645e-05,0.004650239018173772,-0.04185433928252839,-0.0007434072881031561,0.0,0.0,0.25,0.0,0.0,0.0,0.0,0.0,0.0,0.0,0.0,0.0,0.0,0.0,0.0,0.0,0.0,0.0
236.0,0.00010942565724588458,-0.0003128512721450082,0.24675820365648685,-7.112391472992221e-05,0.00036866835670063013,-7.55926106745456e-05,0.0007539689487557275,5.2585688158714405e-05,-6.508245858071767e-07,-8.633760145550993e-05,0.0006002648084812725,1.3845618786219749e-05,-0.048033498094183974,-0.0023406007083187946,5.153380117408411e-05,0.004137241258716421,-0.03865436134123852,-0.0006590676665829268,0.0,0.0,0.25,0.0,0.0,0.0,0.0,0.0,0.0,0.0,0.0,0.0,0.0,0.0,0.0,0.0,0.0,0.0
237.0,0.00010534465901081871,-0.0003131202593515716,0.24675820772486656,-7.067766242730032e-05,0.00036541135867282365,-7.566427970383462e-05,0.0009365954244953748,6.089804918020521e-05,-8.612703325088801e-07,-0.00010126503629745896,0.0007473418372387731,1.6211998777798075e-05,-0.04343167692719153,-0.001991302940412177,4.7331641607095596e-05,0.0035700935025339106,-0.03497495198105903,-0.0005658168286182045,0.0,0.0,0.25,0.0,0.0,0.0,0.0,0.0,0.0,0.0,0.0,0.0,0.0,0.0,0.0,0.0,0.0,0.0
238.0,0.00010059063933627093,-0.0003134168409348951,0.24675821258853603,-7.018055178755026e-05,0.00036161183200468283,-7.574393105650924e-05,0.0010972475494711675,6.75902754379091e-05,-1.0452969691756728e-06,-0.00011354978050516794,0.0008768321318506629,1.8142787137268167e-05,-0.03833093289188423,-0.0016193286417243815,4.2124890161826546e-05,0.002962187912911755,-0.03089295320666775,-0.0004659117893974141,0.0,0.0,0.25,0.0,0.0,0.0,0.0,0.0,0.0,0.0,0.0,0.0,0.0,0.0,0.0,0.0,0.0,0.0
239.0,9.526503153566766e-05,-0.000313733758182875,0.2467582180959863,-6.964447899268415e-05,0.00035735101958789007,-7.582960127407417e-05,0.0012342768822346374,7.260759280030089e-05,-1.199423775024682e-06,-0.00012308474317322983,0.0009874029134619392,1.9620926020922295e-05,-0.03283121731712825,-0.0012331403496022217,3.611209959878263e-05,0.0023270478780342595,-0.026488466824963475,-0.00036163183110092106,0.0,0.0,0.25,0.0,0.0,0.0,0.0,0.0,0.0,0.0,0.0,0.0,0.0,0.0,0.0,0.0,0.0,0.0
240.0,8.947420885602535e-05,-0.0003140636979217771,0.24675822408821782,-6.908151161712938e-05,0.0003527141721722147,-7.591930310932426e-05,0.001346471528998994,7.59310289530013e-05,-1.3213659324335587e-06,-0.0001298202670765289,0.0010780714430417596,2.0639066422528576e-05,-0.02703476952468782,-0.000841073108309863,2.9512227776595075e-05,0.0016780650267990188,-0.021843467607174746,-0.0002552322450437502,0.0,0.0,0.25,0.0,0.0,0.0,0.0,0.0,0.0,0.0,0.0,0.0,0.0,0.0,0.0,0.0,0.0,0.0
241.0,8.332761751411983e-05,-0.00031439943988849015,0.2467582304050221,-6.850365101612232e-05,0.00034778905050058314,-7.601106566964892e-05,0.0014330578041553675,7.757606604038481e-05,-1.4100407745470634e-06,-0.00013376231834509326,0.0011482065134013016,2.1199237972935216e-05,-0.021044420361208193,-0.0004511767807524311,2.255326637756243e-05,0.0010282514239208745,-0.017040442202039745,-0.00014890084966528213,0.0,0.0,0.25,0.0,0.0,0.0,0.0,0.0,0.0,0.0,0.0,0.0,0.0,0.0,0.0,0.0,0.0,0.0
242.0,7.693593576070029e-05,-0.0003147339952014073,0.24675823689074786,-6.792260732907405e-05,0.00034266444776578887,-7.610297224987079e-05,0.0014936949437490854,7.759068089726105e-05,-1.4655153996903427e-06,-0.00013496970876366495,0.0011975243635995734,2.1312349457270777e-05,-0.014961953941740868,-7.107151543731395e-05,1.5461222085809886e-05,0.0003900108722663645,-0.01216107415110199,-4.4718032555479425e-05,0.0,0.0,0.25,0.0,0.0,0.0,0.0,0.0,0.0,0.0,0.0,0.0,0.0,0.0,0.0,0.0,0.0,0.0
243.0,7.040928684025517e-05,-0.0003150607336348624,0.24675824339930277,-6.734959075421655e-05,0.000337428754655183,-7.619319521792998e-05,0.0015284632313058756,7.605284061537067e-05,-1.4889032760081267e-06,-0.0001335504493867535,0.0012260793018826648,2.0997538855003254e-05,-0.008886551010502428,0.0002921814365201667,8.450044326190026e-06,-0.00022506729649847523,-0.00728499382626835,5.537905199142579e-05,0.0,0.0,0.25,0.0,0.0,0.0,0.0,0.0,0.0,0.0,0.0,0.0,0.0,0.0,0.0,0.0,0.0,0.0
244.0,6.385553177244481e-05,-0.00031537349773061484,0.24675824979820735,-6.679512227511581e-05,0.00033216858783558184,-7.628002742008822e-05,0.0015378459845299618,7.306752859287684e-05,-1.4822197736752208e-06,-0.00012965734572961313,0.0012342493950938008,2.028139372244769e-05,-0.0029133351122687793,0.0006321917640648504,1.7129914753293019e-06,-0.0008063891437150429,-0.002488610342092069,0.0001496276219149743,0.0,0.0,0.25,0.0,0.0,0.0,0.0,0.0,0.0,0.0,0.0,0.0,0.0,0.0,0.0,0.0,0.0,0.0
245.0,5.73786655735178e-05,-0.000315666702137079,0.24675825597158835,-6.626886649452356e-05,0.0003269675009651635,-7.636190967201679e-05,0.0015227059299432956,6.876338179774334e-05,-1.4482080980359677e-06,-0.00012348295378219193,0.0012227176457818866,1.9197064187735496e-05,0.0028679596891259696,0.0009433336283255265,-4.584196270202711e-06,-0.001344509563630855,0.00215595947180686,0.00023646536161175263,0.0,0.0,0.25,0.0,0.0,0.0,0.0,0.0,0.0,0.0,0.0,0.0,0.0,0.0,0.0,0.0,0.0,0.0
246.0,5.1077338004590495e-05,-0.00031593541692363867,0.24675826182206706,-6.57794887021719e-05,0.00032190479500205114,-7.643745398942963e-05,0.0014842565596854857,6.328902371622608e-05,-1.3901478242664453e-06,-0.00011525402245412183,0.001192449132361678,1.778329172524839e-05,0.008374183462034224,0.0012208197406502672,-1.0308085224562713e-05,-0.0018312566631596284,0.006581852079984553,0.0003145512169641079,0.0,0.0,0.25,0.0,0.0,0.0,0.0,0.0,0.0,0.0,0.0,0.0,0.0,0.0,0.0,0.0,0.0,0.0
247.0,4.5043517099155333e-05,-0.0003161754340047612,0.24675826727156863,-6.533453772911075e-05,0.0003170544427939109,-7.650546233781042e-05,0.0014240291198462315,5.680917937099409e-05,-1.3116581734555374e-06,-0.00010522555179866867,0.0011446646321497328,1.6083377242966135e-05,0.013529814145110286,0.0014607554676630335,-1.536020470941117e-05,-0.0022598261192874596,0.010728297520996757,0.0003827807603828551,0.0,0.0,0.25,0.0,0.0,0.0,0.0,0.0,0.0,0.0,0.0,0.0,0.0,0.0,0.0,0.0,0.0,0.0
248.0,3.936131080184275e-05,-0.0003163833161635339,0.2467582722611335,-6.494035560166981e-05,0.000312484139926421,-7.656494074597153e-05,0.001343835922467126,4.9500658929851916e-05,-1.2165073886478494e-06,-9.367459753170132e-05,0.0010808112816022284,1.4144111885212645e-05,0.018267839986896014,0.0016601728589083764,-1.967761216144672e-05,-0.0026248451569405914,0.014541330573149432,0.00044029611311415955,0.0,0.0,0.25,0.0,0.0,0.0,0.0,0.0,0.0,0.0,0.0,0.0,0.0,0.0,0.0,0.0,0.0,0.0
249.0,3.410595890402715e-05,-0.0003165564285498128,0.2467582767498666,-6.460201443083796e-05,0.0003082544921151605,-7.66151087687106e-05,0.0012457307035482537,4.154829486809411e-05,-1.1084381734050502e-06,-8.089395105026652e-05,0.001002530852471244,1.2014693366068244e-05,0.02253047324682179,0.0018170448893264559,-2.3231527465472045e-05,-0.002922406373956552,0.0179743667870358,0.00048649052226722194,0.0,0.0,0.25,0.0,0.0,0.0,0.0,0.0,0.0,0.0,0.0,0.0,0.0,0.0,0.0,0.0,0.0,0.0
250.0,2.9343004361957007e-05,-0.0003166929528543738,0.24675828071319045,-6.43232804624449e-05,0.0003044183459686108,-7.665540432350366e-05,0.0011319667670520576,3.314091450666949e-05,-9.910172799135738e-07,-6.718582049608713e-05,0.0009116262369004197,9.745649652262779e-06,0.026269690662667843,0.0019302805808210806,-2.6024297737667627e-05,-0.0031500721929710513,0.020988639731112948,0.0005210077906367712,0.0,0.0,0.25,0.0,0.0,0.0,0.0,0.0,0.0,0.0,0.0,0.0,0.0,0.0,0.0,0.0,0.0,0.0
251.0,2.5127649841944116e-05,-0.00031679188471543516,0.2467582841405986,-6.410660467508591e-05,0.0003010202684459244,-7.668548407058554e-05,0.0010049536602333199,2.4467425161527198e-05,-8.675151320970818e-07,-5.285563257035285e-05,0.0008100267388838199,7.387790459545696e-06,0.029447599088174806,0.001999702008487496,-2.808503027244153e-05,-0.0033068512339788545,0.02355349812427756,0.0005437368470980634,0.0,0.0,0.25,0.0,0.0,0.0,0.0,0.0,0.0,0.0,0.0,0.0,0.0,0.0,0.0,0.0,0.0,0.0
252.0,2.150430226172544e-05,-0.0003168530151890902,0.2467582870331075,-6.395313886595314e-05,0.00029809617667345004,-7.670521951905784e-05,0.0008672131190453155,1.5713083265273572e-05,-7.408190027584579e-07,-3.820606698805613e-05,0.0006997527643478786,4.991205366273639e-06,0.03203662751302778,0.0020260045024834555,-2.9464281011136613e-05,-0.003393148368464137,0.0256465637840407,0.000554801823224504,0.0,0.0,0.25,0.0,0.0,0.0,0.0,0.0,0.0,0.0,0.0,0.0,0.0,0.0,0.0,0.0,0.0,0.0
253.0,1.8506304967371965e-05,-0.00031687689741585073,0.24675828940060848,-6.386277570113766e-05,0.00029567311854676343,-7.671468918052047e-05,0.0007213350044547319,7.05601183653724e-06,-6.133808908508714e-07,-2.3531425891407345e-05,0.000582880487857626,2.604325435738633e-06,0.034019549355352736,0.0020107016218342826,-3.0228207829971687e-05,-0.0034106906298173013,0.02725375346777291,0.00055454806727356,0.0,0.0,0.25,0.0,0.0,0.0,0.0,0.0,0.0,0.0,0.0,0.0,0.0,0.0,0.0,0.0,0.0,0.0
